mouse_consent.x,mouse_consent.y,mouse_consent.leftButton,mouse_consent.midButton,mouse_consent.rightButton,mouse_consent.time,mouse_consent.clicked_name,key_resp_introduction.keys,key_resp_introduction.rt,key_resp_instructions.keys,key_resp_instructions.rt,example_resp.keys,example_resp.rt,example_resp_2.keys,example_resp_2.rt,pol1,pol2,pol3,pol4,pol5,pol6,key_resp_monotonicity.keys,key_resp_monotonicity.corr,key_resp_monotonicity.rt,condition.thisRepN,condition.thisTrialN,condition.thisN,condition.thisIndex,condition.ran,condition.order,condFile,trials.thisRepN,trials.thisTrialN,trials.thisN,trials.thisIndex,trials.ran,trials.order,obj1,obj2,obj3,obj4,obj5,obj6,corrAns,quantifier,target,Prolific_ID*,gender,age,date,expName,psychopyVersion,OS,frameRate,key_resp.keys,key_resp.rt,break_look.thisRepN,break_look.thisTrialN,break_look.thisN,break_look.thisIndex,break_look.ran,break_look.order,key_resp_instruction_test.keys,key_resp_instruction_test.rt,size_rep.keys,size_rep.rt,rep_test.keys,rep_test.corr,rep_test.rt,test_trials.thisRepN,test_trials.thisTrialN,test_trials.thisN,test_trials.thisIndex,test_trials.ran,test_trials.order,s1,s2,s3,s4,s5,s6,col,typedWord
0.444444464,-0.379629643,1,0,0,11.66600013,consent_button,space,5.776000023,space,29.11500001,space,16.85800004,space,11.47300005,"[-0.1,0]","[0.1,0]","[-0.3,0]","[0.3,0]","[0.5,0]","[-0.5,0]",m,1,11.86299992,1,0,8,6,1,7,monotonicity_b7_UE_v2.xlsx,2,0,12,3,1,11,red,red,green,green,green,green,m,UE,green,5e647745fd12ef1f6e4aff08,Male,25,2020-03-24_13h57.54.268,monotonicicty_v2,3.2.4,Win32,60,,,,,,,,,,,,,,,,,,,,,,,,,,,,,
,,,,,,,,,,,,,,,"[-0.3,0]","[0.5,0]","[0.3,0]","[-0.5,0]","[-0.1,0]","[0.1,0]",m,1,10.94200015,1,0,8,6,1,7,monotonicity_b7_UE_v2.xlsx,2,0,12,4,1,11,red,green,green,green,green,green,m,UE,green,5e647745fd12ef1f6e4aff08,Male,25,2020-03-24_13h57.54.268,monotonicicty_v2,3.2.4,Win32,60,,,,,,,,,,,,,,,,,,,,,,,,,,,,,
,,,,,,,,,,,,,,,"[0.3,0]","[0.1,0]","[-0.3,0]","[-0.5,0]","[0.5,0]","[-0.1,0]",m,0,13.60599995,1,0,8,6,1,7,monotonicity_b7_UE_v2.xlsx,2,0,12,1,1,11,red,red,red,red,green,green,c,UE,green,5e647745fd12ef1f6e4aff08,Male,25,2020-03-24_13h57.54.268,monotonicicty_v2,3.2.4,Win32,60,,,,,,,,,,,,,,,,,,,,,,,,,,,,,
,,,,,,,,,,,,,,,"[-0.3,0]","[0.1,0]","[-0.1,0]","[-0.5,0]","[0.3,0]","[0.5,0]",c,1,4.679999828,1,0,8,6,1,7,monotonicity_b7_UE_v2.xlsx,2,0,12,0,1,11,red,red,red,red,red,green,c,UE,green,5e647745fd12ef1f6e4aff08,Male,25,2020-03-24_13h57.54.268,monotonicicty_v2,3.2.4,Win32,60,,,,,,,,,,,,,,,,,,,,,,,,,,,,,
,,,,,,,,,,,,,,,"[-0.5,0]","[0.1,0]","[0.5,0]","[0.3,0]","[-0.1,0]","[-0.3,0]",c,0,7.713999987,1,0,8,6,1,7,monotonicity_b7_UE_v2.xlsx,2,0,12,5,1,11,green,green,green,green,green,green,m,UE,green,5e647745fd12ef1f6e4aff08,Male,25,2020-03-24_13h57.54.268,monotonicicty_v2,3.2.4,Win32,60,,,,,,,,,,,,,,,,,,,,,,,,,,,,,
,,,,,,,,,,,,,,,"[-0.5,0]","[0.1,0]","[0.5,0]","[-0.3,0]","[-0.1,0]","[0.3,0]",m,0,2.9599998,1,0,8,6,1,7,monotonicity_b7_UE_v2.xlsx,2,0,12,2,1,11,red,red,red,green,green,green,c,UE,green,5e647745fd12ef1f6e4aff08,Male,25,2020-03-24_13h57.54.268,monotonicicty_v2,3.2.4,Win32,60,,,,,,,,,,,,,,,,,,,,,,,,,,,,,
,,,,,,,,,,,,,,,"[-0.1,0]","[0.5,0]","[-0.5,0]","[-0.3,0]","[0.1,0]","[0.3,0]",c,0,8.91899991,1,0,8,6,1,7,monotonicity_b7_UE_v2.xlsx,2,0,12,5,1,11,green,green,green,green,green,green,m,UE,green,5e647745fd12ef1f6e4aff08,Male,25,2020-03-24_13h57.54.268,monotonicicty_v2,3.2.4,Win32,60,,,,,,,,,,,,,,,,,,,,,,,,,,,,,
,,,,,,,,,,,,,,,"[-0.5,0]","[-0.3,0]","[0.5,0]","[0.1,0]","[-0.1,0]","[0.3,0]",m,1,3.970999956,1,0,8,6,1,7,monotonicity_b7_UE_v2.xlsx,2,0,12,4,1,11,red,green,green,green,green,green,m,UE,green,5e647745fd12ef1f6e4aff08,Male,25,2020-03-24_13h57.54.268,monotonicicty_v2,3.2.4,Win32,60,,,,,,,,,,,,,,,,,,,,,,,,,,,,,
,,,,,,,,,,,,,,,"[-0.5,0]","[0.3,0]","[-0.3,0]","[-0.1,0]","[0.5,0]","[0.1,0]",c,1,4.671000004,1,0,8,6,1,7,monotonicity_b7_UE_v2.xlsx,2,0,12,0,1,11,red,red,red,red,red,green,c,UE,green,5e647745fd12ef1f6e4aff08,Male,25,2020-03-24_13h57.54.268,monotonicicty_v2,3.2.4,Win32,60,,,,,,,,,,,,,,,,,,,,,,,,,,,,,
,,,,,,,,,,,,,,,"[-0.3,0]","[0.5,0]","[0.1,0]","[0.3,0]","[-0.5,0]","[-0.1,0]",m,0,7.217999935,1,0,8,6,1,7,monotonicity_b7_UE_v2.xlsx,2,0,12,1,1,11,red,red,red,red,green,green,c,UE,green,5e647745fd12ef1f6e4aff08,Male,25,2020-03-24_13h57.54.268,monotonicicty_v2,3.2.4,Win32,60,,,,,,,,,,,,,,,,,,,,,,,,,,,,,
,,,,,,,,,,,,,,,"[0.5,0]","[-0.1,0]","[-0.3,0]","[-0.5,0]","[0.1,0]","[0.3,0]",m,0,6.047999859,1,0,8,6,1,7,monotonicity_b7_UE_v2.xlsx,2,0,12,2,1,11,red,red,red,green,green,green,c,UE,green,5e647745fd12ef1f6e4aff08,Male,25,2020-03-24_13h57.54.268,monotonicicty_v2,3.2.4,Win32,60,,,,,,,,,,,,,,,,,,,,,,,,,,,,,
,,,,,,,,,,,,,,,"[-0.1,0]","[-0.3,0]","[0.3,0]","[0.1,0]","[0.5,0]","[-0.5,0]",c,0,10.08699989,1,0,8,6,1,7,monotonicity_b7_UE_v2.xlsx,2,0,12,3,1,11,red,red,green,green,green,green,m,UE,green,5e647745fd12ef1f6e4aff08,Male,25,2020-03-24_13h57.54.268,monotonicicty_v2,3.2.4,Win32,60,,,,,,,,,,,,,,,,,,,,,,,,,,,,,
,,,,,,,,,,,,,,,,,,,,,,,,1,0,8,6,1,7,monotonicity_b7_UE_v2.xlsx,,,,,,,,,,,,,,,,5e647745fd12ef1f6e4aff08,Male,25,2020-03-24_13h57.54.268,monotonicicty_v2,3.2.4,Win32,60,space,6.198000193,1,0,1,0,1,0,,,,,,,,,,,,,,,,,,,,,
,,,,,,,,,,,,,,,,,,,,,,,,1,0,8,6,1,7,monotonicity_b7_UE_v2.xlsx,,,,,,,,,,,,,,,,5e647745fd12ef1f6e4aff08,Male,25,2020-03-24_13h57.54.268,monotonicicty_v2,3.2.4,Win32,60,,,,,,,,,,,,,,,,,,,,,,,,,,,,,
,,,,,,,,,,,,,,,"[-0.1,0]","[-0.5,0]","[0.5,0]","[0.3,0]","[-0.3,0]","[0.1,0]",m,1,10.42799997,1,0,8,2,1,7,monotonicity_b3_UE_v2.xlsx,2,0,12,4,1,11,green,red,red,red,red,red,m,UE,red,5e647745fd12ef1f6e4aff08,Male,25,2020-03-24_13h57.54.268,monotonicicty_v2,3.2.4,Win32,60,,,,,,,,,,,,,,,,,,,,,,,,,,,,,
,,,,,,,,,,,,,,,"[0.1,0]","[0.3,0]","[0.5,0]","[-0.1,0]","[-0.3,0]","[-0.5,0]",c,1,4.086999893,1,0,8,2,1,7,monotonicity_b3_UE_v2.xlsx,2,0,12,0,1,11,green,green,green,green,green,red,c,UE,red,5e647745fd12ef1f6e4aff08,Male,25,2020-03-24_13h57.54.268,monotonicicty_v2,3.2.4,Win32,60,,,,,,,,,,,,,,,,,,,,,,,,,,,,,
,,,,,,,,,,,,,,,"[0.1,0]","[0.3,0]","[-0.3,0]","[0.5,0]","[-0.5,0]","[-0.1,0]",c,1,10.62100005,1,0,8,2,1,7,monotonicity_b3_UE_v2.xlsx,2,0,12,2,1,11,green,green,green,red,red,red,c,UE,red,5e647745fd12ef1f6e4aff08,Male,25,2020-03-24_13h57.54.268,monotonicicty_v2,3.2.4,Win32,60,,,,,,,,,,,,,,,,,,,,,,,,,,,,,
,,,,,,,,,,,,,,,"[-0.1,0]","[-0.5,0]","[-0.3,0]","[0.5,0]","[0.3,0]","[0.1,0]",m,0,7.251000166,1,0,8,2,1,7,monotonicity_b3_UE_v2.xlsx,2,0,12,1,1,11,green,green,green,green,red,red,c,UE,red,5e647745fd12ef1f6e4aff08,Male,25,2020-03-24_13h57.54.268,monotonicicty_v2,3.2.4,Win32,60,,,,,,,,,,,,,,,,,,,,,,,,,,,,,
,,,,,,,,,,,,,,,"[0.3,0]","[-0.3,0]","[-0.5,0]","[-0.1,0]","[0.5,0]","[0.1,0]",c,0,5.993000031,1,0,8,2,1,7,monotonicity_b3_UE_v2.xlsx,2,0,12,5,1,11,red,red,red,red,red,red,m,UE,red,5e647745fd12ef1f6e4aff08,Male,25,2020-03-24_13h57.54.268,monotonicicty_v2,3.2.4,Win32,60,,,,,,,,,,,,,,,,,,,,,,,,,,,,,
,,,,,,,,,,,,,,,"[-0.3,0]","[-0.1,0]","[0.3,0]","[0.1,0]","[0.5,0]","[-0.5,0]",c,0,8.691999912,1,0,8,2,1,7,monotonicity_b3_UE_v2.xlsx,2,0,12,3,1,11,green,green,red,red,red,red,m,UE,red,5e647745fd12ef1f6e4aff08,Male,25,2020-03-24_13h57.54.268,monotonicicty_v2,3.2.4,Win32,60,,,,,,,,,,,,,,,,,,,,,,,,,,,,,
,,,,,,,,,,,,,,,"[0.3,0]","[-0.1,0]","[-0.3,0]","[0.5,0]","[-0.5,0]","[0.1,0]",c,1,5.996000051,1,0,8,2,1,7,monotonicity_b3_UE_v2.xlsx,2,0,12,0,1,11,green,green,green,green,green,red,c,UE,red,5e647745fd12ef1f6e4aff08,Male,25,2020-03-24_13h57.54.268,monotonicicty_v2,3.2.4,Win32,60,,,,,,,,,,,,,,,,,,,,,,,,,,,,,
,,,,,,,,,,,,,,,"[0.5,0]","[-0.5,0]","[-0.3,0]","[0.1,0]","[0.3,0]","[-0.1,0]",m,1,9.648000002,1,0,8,2,1,7,monotonicity_b3_UE_v2.xlsx,2,0,12,3,1,11,green,green,red,red,red,red,m,UE,red,5e647745fd12ef1f6e4aff08,Male,25,2020-03-24_13h57.54.268,monotonicicty_v2,3.2.4,Win32,60,,,,,,,,,,,,,,,,,,,,,,,,,,,,,
,,,,,,,,,,,,,,,"[0.1,0]","[0.5,0]","[-0.1,0]","[-0.3,0]","[-0.5,0]","[0.3,0]",m,1,5.83100009,1,0,8,2,1,7,monotonicity_b3_UE_v2.xlsx,2,0,12,4,1,11,green,red,red,red,red,red,m,UE,red,5e647745fd12ef1f6e4aff08,Male,25,2020-03-24_13h57.54.268,monotonicicty_v2,3.2.4,Win32,60,,,,,,,,,,,,,,,,,,,,,,,,,,,,,
,,,,,,,,,,,,,,,"[0.1,0]","[0.3,0]","[0.5,0]","[-0.3,0]","[-0.1,0]","[-0.5,0]",c,1,5.197000027,1,0,8,2,1,7,monotonicity_b3_UE_v2.xlsx,2,0,12,2,1,11,green,green,green,red,red,red,c,UE,red,5e647745fd12ef1f6e4aff08,Male,25,2020-03-24_13h57.54.268,monotonicicty_v2,3.2.4,Win32,60,,,,,,,,,,,,,,,,,,,,,,,,,,,,,
,,,,,,,,,,,,,,,"[-0.3,0]","[0.3,0]","[0.5,0]","[0.1,0]","[-0.1,0]","[-0.5,0]",c,0,5.053999901,1,0,8,2,1,7,monotonicity_b3_UE_v2.xlsx,2,0,12,5,1,11,red,red,red,red,red,red,m,UE,red,5e647745fd12ef1f6e4aff08,Male,25,2020-03-24_13h57.54.268,monotonicicty_v2,3.2.4,Win32,60,,,,,,,,,,,,,,,,,,,,,,,,,,,,,
,,,,,,,,,,,,,,,"[-0.5,0]","[0.5,0]","[0.1,0]","[-0.1,0]","[0.3,0]","[-0.3,0]",m,0,13.49900007,1,0,8,2,1,7,monotonicity_b3_UE_v2.xlsx,2,0,12,1,1,11,green,green,green,green,red,red,c,UE,red,5e647745fd12ef1f6e4aff08,Male,25,2020-03-24_13h57.54.268,monotonicicty_v2,3.2.4,Win32,60,,,,,,,,,,,,,,,,,,,,,,,,,,,,,
,,,,,,,,,,,,,,,,,,,,,,,,1,0,8,2,1,7,monotonicity_b3_UE_v2.xlsx,,,,,,,,,,,,,,,,5e647745fd12ef1f6e4aff08,Male,25,2020-03-24_13h57.54.268,monotonicicty_v2,3.2.4,Win32,60,space,1.636000156,1,0,1,0,1,0,,,,,,,,,,,,,,,,,,,,,
,,,,,,,,,,,,,,,,,,,,,,,,1,0,8,2,1,7,monotonicity_b3_UE_v2.xlsx,,,,,,,,,,,,,,,,5e647745fd12ef1f6e4aff08,Male,25,2020-03-24_13h57.54.268,monotonicicty_v2,3.2.4,Win32,60,,,,,,,,,,,,,,,,,,,,,,,,,,,,,
,,,,,,,,,,,,,,,"[-0.5,0]","[-0.3,0]","[-0.1,0]","[0.1,0]","[0.3,0]","[0.5,0]",m,0,8.907999992,1,0,8,7,1,7,monotonicity_b8_UE_v2.xlsx,2,0,12,1,1,11,yellow,yellow,yellow,yellow,blue,blue,c,UE,blue,5e647745fd12ef1f6e4aff08,Male,25,2020-03-24_13h57.54.268,monotonicicty_v2,3.2.4,Win32,60,,,,,,,,,,,,,,,,,,,,,,,,,,,,,
,,,,,,,,,,,,,,,"[0.3,0]","[-0.3,0]","[0.5,0]","[0.1,0]","[-0.1,0]","[-0.5,0]",c,1,5.457999945,1,0,8,7,1,7,monotonicity_b8_UE_v2.xlsx,2,0,12,0,1,11,yellow,yellow,yellow,yellow,yellow,blue,c,UE,blue,5e647745fd12ef1f6e4aff08,Male,25,2020-03-24_13h57.54.268,monotonicicty_v2,3.2.4,Win32,60,,,,,,,,,,,,,,,,,,,,,,,,,,,,,
,,,,,,,,,,,,,,,"[0.1,0]","[-0.5,0]","[0.3,0]","[0.5,0]","[-0.1,0]","[-0.3,0]",c,0,10.05800009,1,0,8,7,1,7,monotonicity_b8_UE_v2.xlsx,2,0,12,3,1,11,yellow,yellow,blue,blue,blue,blue,m,UE,blue,5e647745fd12ef1f6e4aff08,Male,25,2020-03-24_13h57.54.268,monotonicicty_v2,3.2.4,Win32,60,,,,,,,,,,,,,,,,,,,,,,,,,,,,,
,,,,,,,,,,,,,,,"[0.3,0]","[-0.1,0]","[0.1,0]","[-0.5,0]","[0.5,0]","[-0.3,0]",c,1,6.720999956,1,0,8,7,1,7,monotonicity_b8_UE_v2.xlsx,2,0,12,2,1,11,yellow,yellow,yellow,blue,blue,blue,c,UE,blue,5e647745fd12ef1f6e4aff08,Male,25,2020-03-24_13h57.54.268,monotonicicty_v2,3.2.4,Win32,60,,,,,,,,,,,,,,,,,,,,,,,,,,,,,
,,,,,,,,,,,,,,,"[-0.3,0]","[-0.1,0]","[0.5,0]","[0.1,0]","[-0.5,0]","[0.3,0]",m,1,3.630000114,1,0,8,7,1,7,monotonicity_b8_UE_v2.xlsx,2,0,12,4,1,11,yellow,blue,blue,blue,blue,blue,m,UE,blue,5e647745fd12ef1f6e4aff08,Male,25,2020-03-24_13h57.54.268,monotonicicty_v2,3.2.4,Win32,60,,,,,,,,,,,,,,,,,,,,,,,,,,,,,
,,,,,,,,,,,,,,,"[0.5,0]","[0.1,0]","[-0.5,0]","[0.3,0]","[-0.1,0]","[-0.3,0]",m,1,6.790999889,1,0,8,7,1,7,monotonicity_b8_UE_v2.xlsx,2,0,12,5,1,11,blue,blue,blue,blue,blue,blue,m,UE,blue,5e647745fd12ef1f6e4aff08,Male,25,2020-03-24_13h57.54.268,monotonicicty_v2,3.2.4,Win32,60,,,,,,,,,,,,,,,,,,,,,,,,,,,,,
,,,,,,,,,,,,,,,"[0.3,0]","[-0.1,0]","[0.5,0]","[0.1,0]","[-0.3,0]","[-0.5,0]",c,1,5.944999933,1,0,8,7,1,7,monotonicity_b8_UE_v2.xlsx,2,0,12,2,1,11,yellow,yellow,yellow,blue,blue,blue,c,UE,blue,5e647745fd12ef1f6e4aff08,Male,25,2020-03-24_13h57.54.268,monotonicicty_v2,3.2.4,Win32,60,,,,,,,,,,,,,,,,,,,,,,,,,,,,,
,,,,,,,,,,,,,,,"[-0.3,0]","[0.5,0]","[-0.1,0]","[-0.5,0]","[0.3,0]","[0.1,0]",c,1,3.563999891,1,0,8,7,1,7,monotonicity_b8_UE_v2.xlsx,2,0,12,0,1,11,yellow,yellow,yellow,yellow,yellow,blue,c,UE,blue,5e647745fd12ef1f6e4aff08,Male,25,2020-03-24_13h57.54.268,monotonicicty_v2,3.2.4,Win32,60,,,,,,,,,,,,,,,,,,,,,,,,,,,,,
,,,,,,,,,,,,,,,"[-0.5,0]","[-0.3,0]","[-0.1,0]","[0.1,0]","[0.5,0]","[0.3,0]",m,1,7.070999861,1,0,8,7,1,7,monotonicity_b8_UE_v2.xlsx,2,0,12,4,1,11,yellow,blue,blue,blue,blue,blue,m,UE,blue,5e647745fd12ef1f6e4aff08,Male,25,2020-03-24_13h57.54.268,monotonicicty_v2,3.2.4,Win32,60,,,,,,,,,,,,,,,,,,,,,,,,,,,,,
,,,,,,,,,,,,,,,"[0.3,0]","[0.1,0]","[-0.3,0]","[-0.1,0]","[-0.5,0]","[0.5,0]",m,1,8.890999794,1,0,8,7,1,7,monotonicity_b8_UE_v2.xlsx,2,0,12,5,1,11,blue,blue,blue,blue,blue,blue,m,UE,blue,5e647745fd12ef1f6e4aff08,Male,25,2020-03-24_13h57.54.268,monotonicicty_v2,3.2.4,Win32,60,,,,,,,,,,,,,,,,,,,,,,,,,,,,,
,,,,,,,,,,,,,,,"[0.3,0]","[0.1,0]","[-0.5,0]","[-0.3,0]","[0.5,0]","[-0.1,0]",m,0,24.35400009,1,0,8,7,1,7,monotonicity_b8_UE_v2.xlsx,2,0,12,1,1,11,yellow,yellow,yellow,yellow,blue,blue,c,UE,blue,5e647745fd12ef1f6e4aff08,Male,25,2020-03-24_13h57.54.268,monotonicicty_v2,3.2.4,Win32,60,,,,,,,,,,,,,,,,,,,,,,,,,,,,,
,,,,,,,,,,,,,,,"[-0.1,0]","[-0.5,0]","[-0.3,0]","[0.1,0]","[0.5,0]","[0.3,0]",m,1,6.855000019,1,0,8,7,1,7,monotonicity_b8_UE_v2.xlsx,2,0,12,3,1,11,yellow,yellow,blue,blue,blue,blue,m,UE,blue,5e647745fd12ef1f6e4aff08,Male,25,2020-03-24_13h57.54.268,monotonicicty_v2,3.2.4,Win32,60,,,,,,,,,,,,,,,,,,,,,,,,,,,,,
,,,,,,,,,,,,,,,,,,,,,,,,1,0,8,7,1,7,monotonicity_b8_UE_v2.xlsx,,,,,,,,,,,,,,,,5e647745fd12ef1f6e4aff08,Male,25,2020-03-24_13h57.54.268,monotonicicty_v2,3.2.4,Win32,60,space,4.477999926,1,0,1,0,1,0,,,,,,,,,,,,,,,,,,,,,
,,,,,,,,,,,,,,,,,,,,,,,,1,0,8,7,1,7,monotonicity_b8_UE_v2.xlsx,,,,,,,,,,,,,,,,5e647745fd12ef1f6e4aff08,Male,25,2020-03-24_13h57.54.268,monotonicicty_v2,3.2.4,Win32,60,,,,,,,,,,,,,,,,,,,,,,,,,,,,,
,,,,,,,,,,,,,,,"[-0.3,0]","[0.3,0]","[0.5,0]","[0.1,0]","[-0.1,0]","[-0.5,0]",c,1,5.79399991,1,0,8,1,1,7,monotonicity_b2_UE_v2.xlsx,2,0,12,1,1,11,green,green,green,green,yellow,yellow,c,UE,yellow,5e647745fd12ef1f6e4aff08,Male,25,2020-03-24_13h57.54.268,monotonicicty_v2,3.2.4,Win32,60,,,,,,,,,,,,,,,,,,,,,,,,,,,,,
,,,,,,,,,,,,,,,"[-0.1,0]","[-0.3,0]","[0.1,0]","[0.3,0]","[-0.5,0]","[0.5,0]",c,0,5.065000057,1,0,8,1,1,7,monotonicity_b2_UE_v2.xlsx,2,0,12,5,1,11,yellow,yellow,yellow,yellow,yellow,yellow,m,UE,yellow,5e647745fd12ef1f6e4aff08,Male,25,2020-03-24_13h57.54.268,monotonicicty_v2,3.2.4,Win32,60,,,,,,,,,,,,,,,,,,,,,,,,,,,,,
,,,,,,,,,,,,,,,"[0.1,0]","[-0.3,0]","[-0.1,0]","[0.3,0]","[0.5,0]","[-0.5,0]",m,1,6.496999979,1,0,8,1,1,7,monotonicity_b2_UE_v2.xlsx,2,0,12,3,1,11,green,green,yellow,yellow,yellow,yellow,m,UE,yellow,5e647745fd12ef1f6e4aff08,Male,25,2020-03-24_13h57.54.268,monotonicicty_v2,3.2.4,Win32,60,,,,,,,,,,,,,,,,,,,,,,,,,,,,,
,,,,,,,,,,,,,,,"[-0.5,0]","[0.3,0]","[0.1,0]","[-0.1,0]","[0.5,0]","[-0.3,0]",c,1,5.725000143,1,0,8,1,1,7,monotonicity_b2_UE_v2.xlsx,2,0,12,0,1,11,green,green,green,green,green,yellow,c,UE,yellow,5e647745fd12ef1f6e4aff08,Male,25,2020-03-24_13h57.54.268,monotonicicty_v2,3.2.4,Win32,60,,,,,,,,,,,,,,,,,,,,,,,,,,,,,
,,,,,,,,,,,,,,,"[-0.5,0]","[0.5,0]","[0.3,0]","[0.1,0]","[-0.3,0]","[-0.1,0]",c,1,6.460000038,1,0,8,1,1,7,monotonicity_b2_UE_v2.xlsx,2,0,12,2,1,11,green,green,green,yellow,yellow,yellow,c,UE,yellow,5e647745fd12ef1f6e4aff08,Male,25,2020-03-24_13h57.54.268,monotonicicty_v2,3.2.4,Win32,60,,,,,,,,,,,,,,,,,,,,,,,,,,,,,
,,,,,,,,,,,,,,,"[0.1,0]","[0.3,0]","[0.5,0]","[-0.3,0]","[-0.5,0]","[-0.1,0]",m,1,6.269999981,1,0,8,1,1,7,monotonicity_b2_UE_v2.xlsx,2,0,12,4,1,11,green,yellow,yellow,yellow,yellow,yellow,m,UE,yellow,5e647745fd12ef1f6e4aff08,Male,25,2020-03-24_13h57.54.268,monotonicicty_v2,3.2.4,Win32,60,,,,,,,,,,,,,,,,,,,,,,,,,,,,,
,,,,,,,,,,,,,,,"[-0.1,0]","[0.3,0]","[-0.3,0]","[0.1,0]","[0.5,0]","[-0.5,0]",m,1,4.16899991,1,0,8,1,1,7,monotonicity_b2_UE_v2.xlsx,2,0,12,3,1,11,green,green,yellow,yellow,yellow,yellow,m,UE,yellow,5e647745fd12ef1f6e4aff08,Male,25,2020-03-24_13h57.54.268,monotonicicty_v2,3.2.4,Win32,60,,,,,,,,,,,,,,,,,,,,,,,,,,,,,
,,,,,,,,,,,,,,,"[-0.1,0]","[0.5,0]","[-0.3,0]","[0.3,0]","[0.1,0]","[-0.5,0]",c,1,5.569000006,1,0,8,1,1,7,monotonicity_b2_UE_v2.xlsx,2,0,12,2,1,11,green,green,green,yellow,yellow,yellow,c,UE,yellow,5e647745fd12ef1f6e4aff08,Male,25,2020-03-24_13h57.54.268,monotonicicty_v2,3.2.4,Win32,60,,,,,,,,,,,,,,,,,,,,,,,,,,,,,
,,,,,,,,,,,,,,,"[-0.3,0]","[0.3,0]","[0.5,0]","[-0.1,0]","[-0.5,0]","[0.1,0]",c,1,9.010999918,1,0,8,1,1,7,monotonicity_b2_UE_v2.xlsx,2,0,12,0,1,11,green,green,green,green,green,yellow,c,UE,yellow,5e647745fd12ef1f6e4aff08,Male,25,2020-03-24_13h57.54.268,monotonicicty_v2,3.2.4,Win32,60,,,,,,,,,,,,,,,,,,,,,,,,,,,,,
,,,,,,,,,,,,,,,"[-0.1,0]","[0.3,0]","[0.1,0]","[-0.3,0]","[-0.5,0]","[0.5,0]",m,1,3.914000034,1,0,8,1,1,7,monotonicity_b2_UE_v2.xlsx,2,0,12,4,1,11,green,yellow,yellow,yellow,yellow,yellow,m,UE,yellow,5e647745fd12ef1f6e4aff08,Male,25,2020-03-24_13h57.54.268,monotonicicty_v2,3.2.4,Win32,60,,,,,,,,,,,,,,,,,,,,,,,,,,,,,
,,,,,,,,,,,,,,,"[0.5,0]","[-0.3,0]","[0.1,0]","[-0.5,0]","[-0.1,0]","[0.3,0]",c,1,8.578999996,1,0,8,1,1,7,monotonicity_b2_UE_v2.xlsx,2,0,12,1,1,11,green,green,green,green,yellow,yellow,c,UE,yellow,5e647745fd12ef1f6e4aff08,Male,25,2020-03-24_13h57.54.268,monotonicicty_v2,3.2.4,Win32,60,,,,,,,,,,,,,,,,,,,,,,,,,,,,,
,,,,,,,,,,,,,,,"[-0.1,0]","[-0.3,0]","[0.1,0]","[0.5,0]","[-0.5,0]","[0.3,0]",m,1,3.674999952,1,0,8,1,1,7,monotonicity_b2_UE_v2.xlsx,2,0,12,5,1,11,yellow,yellow,yellow,yellow,yellow,yellow,m,UE,yellow,5e647745fd12ef1f6e4aff08,Male,25,2020-03-24_13h57.54.268,monotonicicty_v2,3.2.4,Win32,60,,,,,,,,,,,,,,,,,,,,,,,,,,,,,
,,,,,,,,,,,,,,,,,,,,,,,,1,0,8,1,1,7,monotonicity_b2_UE_v2.xlsx,,,,,,,,,,,,,,,,5e647745fd12ef1f6e4aff08,Male,25,2020-03-24_13h57.54.268,monotonicicty_v2,3.2.4,Win32,60,space,10.53800011,1,0,1,0,1,0,,,,,,,,,,,,,,,,,,,,,
,,,,,,,,,,,,,,,,,,,,,,,,1,0,8,1,1,7,monotonicity_b2_UE_v2.xlsx,,,,,,,,,,,,,,,,5e647745fd12ef1f6e4aff08,Male,25,2020-03-24_13h57.54.268,monotonicicty_v2,3.2.4,Win32,60,,,,,,,,,,,,,,,,,,,,,,,,,,,,,
,,,,,,,,,,,,,,,"[0.1,0]","[-0.1,0]","[-0.5,0]","[0.3,0]","[0.5,0]","[-0.3,0]",m,1,4.078000069,1,0,8,4,1,7,monotonicity_b5_UE_v2.xlsx,2,0,12,3,1,11,red,red,blue,blue,blue,blue,m,UE,blue,5e647745fd12ef1f6e4aff08,Male,25,2020-03-24_13h57.54.268,monotonicicty_v2,3.2.4,Win32,60,,,,,,,,,,,,,,,,,,,,,,,,,,,,,
,,,,,,,,,,,,,,,"[-0.1,0]","[0.5,0]","[0.3,0]","[-0.5,0]","[0.1,0]","[-0.3,0]",c,1,4.022000074,1,0,8,4,1,7,monotonicity_b5_UE_v2.xlsx,2,0,12,2,1,11,red,red,red,blue,blue,blue,c,UE,blue,5e647745fd12ef1f6e4aff08,Male,25,2020-03-24_13h57.54.268,monotonicicty_v2,3.2.4,Win32,60,,,,,,,,,,,,,,,,,,,,,,,,,,,,,
,,,,,,,,,,,,,,,"[0.1,0]","[-0.1,0]","[0.3,0]","[-0.5,0]","[-0.3,0]","[0.5,0]",m,1,8.73300004,1,0,8,4,1,7,monotonicity_b5_UE_v2.xlsx,2,0,12,5,1,11,blue,blue,blue,blue,blue,blue,m,UE,blue,5e647745fd12ef1f6e4aff08,Male,25,2020-03-24_13h57.54.268,monotonicicty_v2,3.2.4,Win32,60,,,,,,,,,,,,,,,,,,,,,,,,,,,,,
,,,,,,,,,,,,,,,"[0.3,0]","[-0.1,0]","[-0.3,0]","[-0.5,0]","[0.5,0]","[0.1,0]",m,1,3.286000013,1,0,8,4,1,7,monotonicity_b5_UE_v2.xlsx,2,0,12,4,1,11,red,blue,blue,blue,blue,blue,m,UE,blue,5e647745fd12ef1f6e4aff08,Male,25,2020-03-24_13h57.54.268,monotonicicty_v2,3.2.4,Win32,60,,,,,,,,,,,,,,,,,,,,,,,,,,,,,
,,,,,,,,,,,,,,,"[-0.1,0]","[-0.5,0]","[0.1,0]","[0.5,0]","[-0.3,0]","[0.3,0]",c,1,10.11000013,1,0,8,4,1,7,monotonicity_b5_UE_v2.xlsx,2,0,12,1,1,11,red,red,red,red,blue,blue,c,UE,blue,5e647745fd12ef1f6e4aff08,Male,25,2020-03-24_13h57.54.268,monotonicicty_v2,3.2.4,Win32,60,,,,,,,,,,,,,,,,,,,,,,,,,,,,,
,,,,,,,,,,,,,,,"[0.3,0]","[-0.1,0]","[-0.5,0]","[-0.3,0]","[0.5,0]","[0.1,0]",m,0,2.420000076,1,0,8,4,1,7,monotonicity_b5_UE_v2.xlsx,2,0,12,0,1,11,red,red,red,red,red,blue,c,UE,blue,5e647745fd12ef1f6e4aff08,Male,25,2020-03-24_13h57.54.268,monotonicicty_v2,3.2.4,Win32,60,,,,,,,,,,,,,,,,,,,,,,,,,,,,,
,,,,,,,,,,,,,,,"[0.1,0]","[-0.5,0]","[-0.3,0]","[0.5,0]","[-0.1,0]","[0.3,0]",c,1,7.828999996,1,0,8,4,1,7,monotonicity_b5_UE_v2.xlsx,2,0,12,1,1,11,red,red,red,red,blue,blue,c,UE,blue,5e647745fd12ef1f6e4aff08,Male,25,2020-03-24_13h57.54.268,monotonicicty_v2,3.2.4,Win32,60,,,,,,,,,,,,,,,,,,,,,,,,,,,,,
,,,,,,,,,,,,,,,"[-0.1,0]","[0.5,0]","[0.3,0]","[-0.3,0]","[0.1,0]","[-0.5,0]",m,1,2.806999922,1,0,8,4,1,7,monotonicity_b5_UE_v2.xlsx,2,0,12,4,1,11,red,blue,blue,blue,blue,blue,m,UE,blue,5e647745fd12ef1f6e4aff08,Male,25,2020-03-24_13h57.54.268,monotonicicty_v2,3.2.4,Win32,60,,,,,,,,,,,,,,,,,,,,,,,,,,,,,
,,,,,,,,,,,,,,,"[0.3,0]","[-0.5,0]","[-0.3,0]","[0.1,0]","[0.5,0]","[-0.1,0]",c,1,2.471999884,1,0,8,4,1,7,monotonicity_b5_UE_v2.xlsx,2,0,12,2,1,11,red,red,red,blue,blue,blue,c,UE,blue,5e647745fd12ef1f6e4aff08,Male,25,2020-03-24_13h57.54.268,monotonicicty_v2,3.2.4,Win32,60,,,,,,,,,,,,,,,,,,,,,,,,,,,,,
,,,,,,,,,,,,,,,"[0.1,0]","[-0.1,0]","[-0.5,0]","[0.3,0]","[0.5,0]","[-0.3,0]",m,1,2.761999846,1,0,8,4,1,7,monotonicity_b5_UE_v2.xlsx,2,0,12,3,1,11,red,red,blue,blue,blue,blue,m,UE,blue,5e647745fd12ef1f6e4aff08,Male,25,2020-03-24_13h57.54.268,monotonicicty_v2,3.2.4,Win32,60,,,,,,,,,,,,,,,,,,,,,,,,,,,,,
,,,,,,,,,,,,,,,"[-0.1,0]","[0.5,0]","[0.1,0]","[-0.5,0]","[0.3,0]","[-0.3,0]",m,1,2.862000227,1,0,8,4,1,7,monotonicity_b5_UE_v2.xlsx,2,0,12,5,1,11,blue,blue,blue,blue,blue,blue,m,UE,blue,5e647745fd12ef1f6e4aff08,Male,25,2020-03-24_13h57.54.268,monotonicicty_v2,3.2.4,Win32,60,,,,,,,,,,,,,,,,,,,,,,,,,,,,,
,,,,,,,,,,,,,,,"[0.3,0]","[-0.5,0]","[0.1,0]","[0.5,0]","[-0.3,0]","[-0.1,0]",c,1,2.886000156,1,0,8,4,1,7,monotonicity_b5_UE_v2.xlsx,2,0,12,0,1,11,red,red,red,red,red,blue,c,UE,blue,5e647745fd12ef1f6e4aff08,Male,25,2020-03-24_13h57.54.268,monotonicicty_v2,3.2.4,Win32,60,,,,,,,,,,,,,,,,,,,,,,,,,,,,,
,,,,,,,,,,,,,,,,,,,,,,,,1,0,8,4,1,7,monotonicity_b5_UE_v2.xlsx,,,,,,,,,,,,,,,,5e647745fd12ef1f6e4aff08,Male,25,2020-03-24_13h57.54.268,monotonicicty_v2,3.2.4,Win32,60,space,2.208000183,1,0,1,0,1,0,,,,,,,,,,,,,,,,,,,,,
,,,,,,,,,,,,,,,,,,,,,,,,1,0,8,4,1,7,monotonicity_b5_UE_v2.xlsx,,,,,,,,,,,,,,,,5e647745fd12ef1f6e4aff08,Male,25,2020-03-24_13h57.54.268,monotonicicty_v2,3.2.4,Win32,60,,,,,,,,,,,,,,,,,,,,,,,,,,,,,
,,,,,,,,,,,,,,,"[0.3,0]","[0.5,0]","[0.1,0]","[-0.5,0]","[-0.3,0]","[-0.1,0]",m,1,5.354000092,1,0,8,5,1,7,monotonicity_b6_UE_v2.xlsx,2,0,12,4,1,11,yellow,green,green,green,green,green,m,UE,green,5e647745fd12ef1f6e4aff08,Male,25,2020-03-24_13h57.54.268,monotonicicty_v2,3.2.4,Win32,60,,,,,,,,,,,,,,,,,,,,,,,,,,,,,
,,,,,,,,,,,,,,,"[0.3,0]","[0.1,0]","[-0.5,0]","[0.5,0]","[-0.1,0]","[-0.3,0]",c,1,6.99000001,1,0,8,5,1,7,monotonicity_b6_UE_v2.xlsx,2,0,12,0,1,11,yellow,yellow,yellow,yellow,yellow,green,c,UE,green,5e647745fd12ef1f6e4aff08,Male,25,2020-03-24_13h57.54.268,monotonicicty_v2,3.2.4,Win32,60,,,,,,,,,,,,,,,,,,,,,,,,,,,,,
,,,,,,,,,,,,,,,"[0.1,0]","[0.3,0]","[-0.5,0]","[-0.3,0]","[0.5,0]","[-0.1,0]",c,1,24.89600015,1,0,8,5,1,7,monotonicity_b6_UE_v2.xlsx,2,0,12,1,1,11,yellow,yellow,yellow,yellow,green,green,c,UE,green,5e647745fd12ef1f6e4aff08,Male,25,2020-03-24_13h57.54.268,monotonicicty_v2,3.2.4,Win32,60,,,,,,,,,,,,,,,,,,,,,,,,,,,,,
,,,,,,,,,,,,,,,"[0.1,0]","[-0.1,0]","[0.5,0]","[-0.3,0]","[0.3,0]","[-0.5,0]",m,1,1.996000051,1,0,8,5,1,7,monotonicity_b6_UE_v2.xlsx,2,0,12,5,1,11,green,green,green,green,green,green,m,UE,green,5e647745fd12ef1f6e4aff08,Male,25,2020-03-24_13h57.54.268,monotonicicty_v2,3.2.4,Win32,60,,,,,,,,,,,,,,,,,,,,,,,,,,,,,
,,,,,,,,,,,,,,,"[-0.1,0]","[-0.5,0]","[0.1,0]","[0.5,0]","[0.3,0]","[-0.3,0]",m,1,3.320999861,1,0,8,5,1,7,monotonicity_b6_UE_v2.xlsx,2,0,12,3,1,11,yellow,yellow,green,green,green,green,m,UE,green,5e647745fd12ef1f6e4aff08,Male,25,2020-03-24_13h57.54.268,monotonicicty_v2,3.2.4,Win32,60,,,,,,,,,,,,,,,,,,,,,,,,,,,,,
,,,,,,,,,,,,,,,"[-0.3,0]","[0.1,0]","[-0.5,0]","[0.5,0]","[-0.1,0]","[0.3,0]",c,1,1.904999971,1,0,8,5,1,7,monotonicity_b6_UE_v2.xlsx,2,0,12,2,1,11,yellow,yellow,yellow,green,green,green,c,UE,green,5e647745fd12ef1f6e4aff08,Male,25,2020-03-24_13h57.54.268,monotonicicty_v2,3.2.4,Win32,60,,,,,,,,,,,,,,,,,,,,,,,,,,,,,
,,,,,,,,,,,,,,,"[0.5,0]","[-0.1,0]","[0.1,0]","[-0.3,0]","[-0.5,0]","[0.3,0]",m,1,2.345999956,1,0,8,5,1,7,monotonicity_b6_UE_v2.xlsx,2,0,12,5,1,11,green,green,green,green,green,green,m,UE,green,5e647745fd12ef1f6e4aff08,Male,25,2020-03-24_13h57.54.268,monotonicicty_v2,3.2.4,Win32,60,,,,,,,,,,,,,,,,,,,,,,,,,,,,,
,,,,,,,,,,,,,,,"[0.3,0]","[0.5,0]","[-0.1,0]","[0.1,0]","[-0.3,0]","[-0.5,0]",c,1,5.534000158,1,0,8,5,1,7,monotonicity_b6_UE_v2.xlsx,2,0,12,1,1,11,yellow,yellow,yellow,yellow,green,green,c,UE,green,5e647745fd12ef1f6e4aff08,Male,25,2020-03-24_13h57.54.268,monotonicicty_v2,3.2.4,Win32,60,,,,,,,,,,,,,,,,,,,,,,,,,,,,,
,,,,,,,,,,,,,,,"[-0.5,0]","[0.1,0]","[-0.1,0]","[0.3,0]","[-0.3,0]","[0.5,0]",m,1,5.414000034,1,0,8,5,1,7,monotonicity_b6_UE_v2.xlsx,2,0,12,4,1,11,yellow,green,green,green,green,green,m,UE,green,5e647745fd12ef1f6e4aff08,Male,25,2020-03-24_13h57.54.268,monotonicicty_v2,3.2.4,Win32,60,,,,,,,,,,,,,,,,,,,,,,,,,,,,,
,,,,,,,,,,,,,,,"[0.5,0]","[0.3,0]","[-0.3,0]","[0.1,0]","[-0.5,0]","[-0.1,0]",c,1,6.500999928,1,0,8,5,1,7,monotonicity_b6_UE_v2.xlsx,2,0,12,0,1,11,yellow,yellow,yellow,yellow,yellow,green,c,UE,green,5e647745fd12ef1f6e4aff08,Male,25,2020-03-24_13h57.54.268,monotonicicty_v2,3.2.4,Win32,60,,,,,,,,,,,,,,,,,,,,,,,,,,,,,
,,,,,,,,,,,,,,,"[-0.3,0]","[-0.1,0]","[0.1,0]","[0.3,0]","[-0.5,0]","[0.5,0]",c,1,6.832000017,1,0,8,5,1,7,monotonicity_b6_UE_v2.xlsx,2,0,12,2,1,11,yellow,yellow,yellow,green,green,green,c,UE,green,5e647745fd12ef1f6e4aff08,Male,25,2020-03-24_13h57.54.268,monotonicicty_v2,3.2.4,Win32,60,,,,,,,,,,,,,,,,,,,,,,,,,,,,,
,,,,,,,,,,,,,,,"[-0.1,0]","[-0.3,0]","[0.3,0]","[0.1,0]","[0.5,0]","[-0.5,0]",m,1,5.898000002,1,0,8,5,1,7,monotonicity_b6_UE_v2.xlsx,2,0,12,3,1,11,yellow,yellow,green,green,green,green,m,UE,green,5e647745fd12ef1f6e4aff08,Male,25,2020-03-24_13h57.54.268,monotonicicty_v2,3.2.4,Win32,60,,,,,,,,,,,,,,,,,,,,,,,,,,,,,
,,,,,,,,,,,,,,,,,,,,,,,,1,0,8,5,1,7,monotonicity_b6_UE_v2.xlsx,,,,,,,,,,,,,,,,5e647745fd12ef1f6e4aff08,Male,25,2020-03-24_13h57.54.268,monotonicicty_v2,3.2.4,Win32,60,space,2.224999905,1,0,1,0,1,0,,,,,,,,,,,,,,,,,,,,,
,,,,,,,,,,,,,,,,,,,,,,,,1,0,8,5,1,7,monotonicity_b6_UE_v2.xlsx,,,,,,,,,,,,,,,,5e647745fd12ef1f6e4aff08,Male,25,2020-03-24_13h57.54.268,monotonicicty_v2,3.2.4,Win32,60,,,,,,,,,,,,,,,,,,,,,,,,,,,,,
,,,,,,,,,,,,,,,"[-0.5,0]","[-0.3,0]","[-0.1,0]","[0.1,0]","[0.5,0]","[0.3,0]",m,1,3.687000036,1,0,8,0,1,7,monotonicity_b1_UE_v2.xlsx,2,0,12,5,1,11,red,red,red,red,red,red,m,UE,red,5e647745fd12ef1f6e4aff08,Male,25,2020-03-24_13h57.54.268,monotonicicty_v2,3.2.4,Win32,60,,,,,,,,,,,,,,,,,,,,,,,,,,,,,
,,,,,,,,,,,,,,,"[0.3,0]","[0.1,0]","[0.5,0]","[-0.3,0]","[-0.1,0]","[-0.5,0]",c,1,2.674000025,1,0,8,0,1,7,monotonicity_b1_UE_v2.xlsx,2,0,12,1,1,11,blue,blue,blue,blue,red,red,c,UE,red,5e647745fd12ef1f6e4aff08,Male,25,2020-03-24_13h57.54.268,monotonicicty_v2,3.2.4,Win32,60,,,,,,,,,,,,,,,,,,,,,,,,,,,,,
,,,,,,,,,,,,,,,"[-0.3,0]","[-0.1,0]","[0.1,0]","[0.3,0]","[0.5,0]","[-0.5,0]",m,1,2.095000029,1,0,8,0,1,7,monotonicity_b1_UE_v2.xlsx,2,0,12,4,1,11,blue,red,red,red,red,red,m,UE,red,5e647745fd12ef1f6e4aff08,Male,25,2020-03-24_13h57.54.268,monotonicicty_v2,3.2.4,Win32,60,,,,,,,,,,,,,,,,,,,,,,,,,,,,,
,,,,,,,,,,,,,,,"[-0.5,0]","[0.3,0]","[0.1,0]","[-0.3,0]","[-0.1,0]","[0.5,0]",c,1,2.837999821,1,0,8,0,1,7,monotonicity_b1_UE_v2.xlsx,2,0,12,2,1,11,blue,blue,blue,red,red,red,c,UE,red,5e647745fd12ef1f6e4aff08,Male,25,2020-03-24_13h57.54.268,monotonicicty_v2,3.2.4,Win32,60,,,,,,,,,,,,,,,,,,,,,,,,,,,,,
,,,,,,,,,,,,,,,"[0.1,0]","[-0.3,0]","[-0.5,0]","[0.3,0]","[0.5,0]","[-0.1,0]",c,1,4.181999922,1,0,8,0,1,7,monotonicity_b1_UE_v2.xlsx,2,0,12,0,1,11,blue,blue,blue,blue,blue,red,c,UE,red,5e647745fd12ef1f6e4aff08,Male,25,2020-03-24_13h57.54.268,monotonicicty_v2,3.2.4,Win32,60,,,,,,,,,,,,,,,,,,,,,,,,,,,,,
,,,,,,,,,,,,,,,"[-0.1,0]","[-0.5,0]","[-0.3,0]","[0.1,0]","[0.3,0]","[0.5,0]",m,1,5.413000107,1,0,8,0,1,7,monotonicity_b1_UE_v2.xlsx,2,0,12,3,1,11,blue,blue,red,red,red,red,m,UE,red,5e647745fd12ef1f6e4aff08,Male,25,2020-03-24_13h57.54.268,monotonicicty_v2,3.2.4,Win32,60,,,,,,,,,,,,,,,,,,,,,,,,,,,,,
,,,,,,,,,,,,,,,"[0.1,0]","[0.3,0]","[-0.3,0]","[0.5,0]","[-0.1,0]","[-0.5,0]",c,1,2.71999979,1,0,8,0,1,7,monotonicity_b1_UE_v2.xlsx,2,0,12,2,1,11,blue,blue,blue,red,red,red,c,UE,red,5e647745fd12ef1f6e4aff08,Male,25,2020-03-24_13h57.54.268,monotonicicty_v2,3.2.4,Win32,60,,,,,,,,,,,,,,,,,,,,,,,,,,,,,
,,,,,,,,,,,,,,,"[-0.3,0]","[0.5,0]","[-0.5,0]","[0.3,0]","[0.1,0]","[-0.1,0]",m,1,2.35800004,1,0,8,0,1,7,monotonicity_b1_UE_v2.xlsx,2,0,12,5,1,11,red,red,red,red,red,red,m,UE,red,5e647745fd12ef1f6e4aff08,Male,25,2020-03-24_13h57.54.268,monotonicicty_v2,3.2.4,Win32,60,,,,,,,,,,,,,,,,,,,,,,,,,,,,,
,,,,,,,,,,,,,,,"[-0.3,0]","[-0.5,0]","[0.3,0]","[-0.1,0]","[0.5,0]","[0.1,0]",c,1,3.340999842,1,0,8,0,1,7,monotonicity_b1_UE_v2.xlsx,2,0,12,1,1,11,blue,blue,blue,blue,red,red,c,UE,red,5e647745fd12ef1f6e4aff08,Male,25,2020-03-24_13h57.54.268,monotonicicty_v2,3.2.4,Win32,60,,,,,,,,,,,,,,,,,,,,,,,,,,,,,
,,,,,,,,,,,,,,,"[0.1,0]","[0.3,0]","[-0.3,0]","[-0.1,0]","[0.5,0]","[-0.5,0]",m,1,2.538000107,1,0,8,0,1,7,monotonicity_b1_UE_v2.xlsx,2,0,12,4,1,11,blue,red,red,red,red,red,m,UE,red,5e647745fd12ef1f6e4aff08,Male,25,2020-03-24_13h57.54.268,monotonicicty_v2,3.2.4,Win32,60,,,,,,,,,,,,,,,,,,,,,,,,,,,,,
,,,,,,,,,,,,,,,"[0.1,0]","[0.5,0]","[-0.5,0]","[0.3,0]","[-0.1,0]","[-0.3,0]",m,1,3.215999842,1,0,8,0,1,7,monotonicity_b1_UE_v2.xlsx,2,0,12,3,1,11,blue,blue,red,red,red,red,m,UE,red,5e647745fd12ef1f6e4aff08,Male,25,2020-03-24_13h57.54.268,monotonicicty_v2,3.2.4,Win32,60,,,,,,,,,,,,,,,,,,,,,,,,,,,,,
,,,,,,,,,,,,,,,"[0.5,0]","[-0.5,0]","[0.3,0]","[0.1,0]","[-0.1,0]","[-0.3,0]",c,1,2.84800005,1,0,8,0,1,7,monotonicity_b1_UE_v2.xlsx,2,0,12,0,1,11,blue,blue,blue,blue,blue,red,c,UE,red,5e647745fd12ef1f6e4aff08,Male,25,2020-03-24_13h57.54.268,monotonicicty_v2,3.2.4,Win32,60,,,,,,,,,,,,,,,,,,,,,,,,,,,,,
,,,,,,,,,,,,,,,,,,,,,,,,1,0,8,0,1,7,monotonicity_b1_UE_v2.xlsx,,,,,,,,,,,,,,,,5e647745fd12ef1f6e4aff08,Male,25,2020-03-24_13h57.54.268,monotonicicty_v2,3.2.4,Win32,60,space,1.743999958,1,0,1,0,1,0,,,,,,,,,,,,,,,,,,,,,
,,,,,,,,,,,,,,,,,,,,,,,,1,0,8,0,1,7,monotonicity_b1_UE_v2.xlsx,,,,,,,,,,,,,,,,5e647745fd12ef1f6e4aff08,Male,25,2020-03-24_13h57.54.268,monotonicicty_v2,3.2.4,Win32,60,,,,,,,,,,,,,,,,,,,,,,,,,,,,,
,,,,,,,,,,,,,,,"[0.3,0]","[0.5,0]","[0.1,0]","[-0.3,0]","[-0.1,0]","[-0.5,0]",c,1,4.684999943,1,0,8,3,1,7,monotonicity_b4_UE_v2.xlsx,2,0,12,1,1,11,blue,blue,blue,blue,yellow,yellow,c,UE,yellow,5e647745fd12ef1f6e4aff08,Male,25,2020-03-24_13h57.54.268,monotonicicty_v2,3.2.4,Win32,60,,,,,,,,,,,,,,,,,,,,,,,,,,,,,
,,,,,,,,,,,,,,,"[0.3,0]","[0.5,0]","[0.1,0]","[-0.5,0]","[-0.3,0]","[-0.1,0]",m,0,6.065999985,1,0,8,3,1,7,monotonicity_b4_UE_v2.xlsx,2,0,12,0,1,11,blue,blue,blue,blue,blue,yellow,c,UE,yellow,5e647745fd12ef1f6e4aff08,Male,25,2020-03-24_13h57.54.268,monotonicicty_v2,3.2.4,Win32,60,,,,,,,,,,,,,,,,,,,,,,,,,,,,,
,,,,,,,,,,,,,,,"[0.3,0]","[0.5,0]","[0.1,0]","[-0.5,0]","[-0.3,0]","[-0.1,0]",c,1,4.312999964,1,0,8,3,1,7,monotonicity_b4_UE_v2.xlsx,2,0,12,2,1,11,blue,blue,blue,yellow,yellow,yellow,c,UE,yellow,5e647745fd12ef1f6e4aff08,Male,25,2020-03-24_13h57.54.268,monotonicicty_v2,3.2.4,Win32,60,,,,,,,,,,,,,,,,,,,,,,,,,,,,,
,,,,,,,,,,,,,,,"[0.5,0]","[0.1,0]","[0.3,0]","[-0.5,0]","[-0.3,0]","[-0.1,0]",m,1,2.825000048,1,0,8,3,1,7,monotonicity_b4_UE_v2.xlsx,2,0,12,4,1,11,blue,yellow,yellow,yellow,yellow,yellow,m,UE,yellow,5e647745fd12ef1f6e4aff08,Male,25,2020-03-24_13h57.54.268,monotonicicty_v2,3.2.4,Win32,60,,,,,,,,,,,,,,,,,,,,,,,,,,,,,
,,,,,,,,,,,,,,,"[-0.5,0]","[0.1,0]","[0.3,0]","[-0.3,0]","[0.5,0]","[-0.1,0]",m,1,2.486999989,1,0,8,3,1,7,monotonicity_b4_UE_v2.xlsx,2,0,12,3,1,11,blue,blue,yellow,yellow,yellow,yellow,m,UE,yellow,5e647745fd12ef1f6e4aff08,Male,25,2020-03-24_13h57.54.268,monotonicicty_v2,3.2.4,Win32,60,,,,,,,,,,,,,,,,,,,,,,,,,,,,,
,,,,,,,,,,,,,,,"[0.3,0]","[0.1,0]","[-0.3,0]","[-0.1,0]","[-0.5,0]","[0.5,0]",m,1,2.861999989,1,0,8,3,1,7,monotonicity_b4_UE_v2.xlsx,2,0,12,5,1,11,yellow,yellow,yellow,yellow,yellow,yellow,m,UE,yellow,5e647745fd12ef1f6e4aff08,Male,25,2020-03-24_13h57.54.268,monotonicicty_v2,3.2.4,Win32,60,,,,,,,,,,,,,,,,,,,,,,,,,,,,,
,,,,,,,,,,,,,,,"[0.5,0]","[-0.1,0]","[-0.3,0]","[0.1,0]","[-0.5,0]","[0.3,0]",m,1,2.494999886,1,0,8,3,1,7,monotonicity_b4_UE_v2.xlsx,2,0,12,3,1,11,blue,blue,yellow,yellow,yellow,yellow,m,UE,yellow,5e647745fd12ef1f6e4aff08,Male,25,2020-03-24_13h57.54.268,monotonicicty_v2,3.2.4,Win32,60,,,,,,,,,,,,,,,,,,,,,,,,,,,,,
,,,,,,,,,,,,,,,"[-0.5,0]","[-0.1,0]","[0.3,0]","[-0.3,0]","[0.1,0]","[0.5,0]",c,1,3.11500001,1,0,8,3,1,7,monotonicity_b4_UE_v2.xlsx,2,0,12,0,1,11,blue,blue,blue,blue,blue,yellow,c,UE,yellow,5e647745fd12ef1f6e4aff08,Male,25,2020-03-24_13h57.54.268,monotonicicty_v2,3.2.4,Win32,60,,,,,,,,,,,,,,,,,,,,,,,,,,,,,
,,,,,,,,,,,,,,,"[0.3,0]","[-0.3,0]","[-0.5,0]","[0.1,0]","[0.5,0]","[-0.1,0]",m,1,2.520999908,1,0,8,3,1,7,monotonicity_b4_UE_v2.xlsx,2,0,12,4,1,11,blue,yellow,yellow,yellow,yellow,yellow,m,UE,yellow,5e647745fd12ef1f6e4aff08,Male,25,2020-03-24_13h57.54.268,monotonicicty_v2,3.2.4,Win32,60,,,,,,,,,,,,,,,,,,,,,,,,,,,,,
,,,,,,,,,,,,,,,"[0.3,0]","[-0.3,0]","[0.5,0]","[0.1,0]","[-0.5,0]","[-0.1,0]",c,1,3.194000006,1,0,8,3,1,7,monotonicity_b4_UE_v2.xlsx,2,0,12,2,1,11,blue,blue,blue,yellow,yellow,yellow,c,UE,yellow,5e647745fd12ef1f6e4aff08,Male,25,2020-03-24_13h57.54.268,monotonicicty_v2,3.2.4,Win32,60,,,,,,,,,,,,,,,,,,,,,,,,,,,,,
,,,,,,,,,,,,,,,"[-0.5,0]","[0.5,0]","[0.1,0]","[0.3,0]","[-0.1,0]","[-0.3,0]",c,1,2.705000162,1,0,8,3,1,7,monotonicity_b4_UE_v2.xlsx,2,0,12,1,1,11,blue,blue,blue,blue,yellow,yellow,c,UE,yellow,5e647745fd12ef1f6e4aff08,Male,25,2020-03-24_13h57.54.268,monotonicicty_v2,3.2.4,Win32,60,,,,,,,,,,,,,,,,,,,,,,,,,,,,,
,,,,,,,,,,,,,,,"[0.3,0]","[-0.1,0]","[0.1,0]","[-0.5,0]","[0.5,0]","[-0.3,0]",m,1,2.486999989,1,0,8,3,1,7,monotonicity_b4_UE_v2.xlsx,2,0,12,5,1,11,yellow,yellow,yellow,yellow,yellow,yellow,m,UE,yellow,5e647745fd12ef1f6e4aff08,Male,25,2020-03-24_13h57.54.268,monotonicicty_v2,3.2.4,Win32,60,,,,,,,,,,,,,,,,,,,,,,,,,,,,,
,,,,,,,,,,,,,,,,,,,,,,,,1,0,8,3,1,7,monotonicity_b4_UE_v2.xlsx,,,,,,,,,,,,,,,,5e647745fd12ef1f6e4aff08,Male,25,2020-03-24_13h57.54.268,monotonicicty_v2,3.2.4,Win32,60,,,,,,,,,,,,,,,,,,,,,,,,,,,,,
,,,,,,,,,,,,,,,"[0.3,0]","[-0.1,0]","[0.1,0]","[0.5,0]","[-0.5,0]","[-0.3,0]",,,,,,,,,,,,,,,,,,,,,,,c,UE,,5e647745fd12ef1f6e4aff08,Male,25,2020-03-24_13h57.54.268,monotonicicty_v2,3.2.4,Win32,60,,,,,,,,,space,46.33799982,space,3.095999956,c,1,4.609999895,2,0,12,0,1,11,0.09,0.09,0.09,0.09,0.09,0.19,black,
,,,,,,,,,,,,,,,"[-0.5,0]","[0.1,0]","[-0.1,0]","[0.5,0]","[0.3,0]","[-0.3,0]",,,,,,,,,,,,,,,,,,,,,,,m,UE,,5e647745fd12ef1f6e4aff08,Male,25,2020-03-24_13h57.54.268,monotonicicty_v2,3.2.4,Win32,60,,,,,,,,,,,,,m,1,1.486000061,2,0,12,4,1,11,0.09,0.19,0.19,0.19,0.19,0.19,black,
,,,,,,,,,,,,,,,"[0.1,0]","[-0.3,0]","[-0.1,0]","[0.5,0]","[0.3,0]","[-0.5,0]",,,,,,,,,,,,,,,,,,,,,,,c,UE,,5e647745fd12ef1f6e4aff08,Male,25,2020-03-24_13h57.54.268,monotonicicty_v2,3.2.4,Win32,60,,,,,,,,,,,,,c,1,2.855000019,2,0,12,2,1,11,0.09,0.09,0.09,0.19,0.19,0.19,black,
,,,,,,,,,,,,,,,"[0.5,0]","[0.1,0]","[-0.1,0]","[-0.5,0]","[0.3,0]","[-0.3,0]",,,,,,,,,,,,,,,,,,,,,,,c,UE,,5e647745fd12ef1f6e4aff08,Male,25,2020-03-24_13h57.54.268,monotonicicty_v2,3.2.4,Win32,60,,,,,,,,,,,,,c,1,2.354000092,2,0,12,1,1,11,0.09,0.09,0.09,0.09,0.19,0.19,black,
,,,,,,,,,,,,,,,"[-0.5,0]","[-0.1,0]","[0.5,0]","[-0.3,0]","[0.1,0]","[0.3,0]",,,,,,,,,,,,,,,,,,,,,,,m,UE,,5e647745fd12ef1f6e4aff08,Male,25,2020-03-24_13h57.54.268,monotonicicty_v2,3.2.4,Win32,60,,,,,,,,,,,,,m,1,1.805000067,2,0,12,5,1,11,0.19,0.19,0.19,0.19,0.19,0.19,black,
,,,,,,,,,,,,,,,"[0.5,0]","[0.1,0]","[-0.3,0]","[0.3,0]","[-0.5,0]","[-0.1,0]",,,,,,,,,,,,,,,,,,,,,,,m,UE,,5e647745fd12ef1f6e4aff08,Male,25,2020-03-24_13h57.54.268,monotonicicty_v2,3.2.4,Win32,60,,,,,,,,,,,,,m,1,0.944000006,2,0,12,3,1,11,0.09,0.09,0.19,0.19,0.19,0.19,black,
,,,,,,,,,,,,,,,"[-0.5,0]","[0.5,0]","[-0.3,0]","[-0.1,0]","[0.3,0]","[0.1,0]",,,,,,,,,,,,,,,,,,,,,,,c,UE,,5e647745fd12ef1f6e4aff08,Male,25,2020-03-24_13h57.54.268,monotonicicty_v2,3.2.4,Win32,60,,,,,,,,,,,,,c,1,1.095999956,2,0,12,2,1,11,0.09,0.09,0.09,0.19,0.19,0.19,black,
,,,,,,,,,,,,,,,"[0.5,0]","[-0.1,0]","[0.3,0]","[-0.5,0]","[-0.3,0]","[0.1,0]",,,,,,,,,,,,,,,,,,,,,,,m,UE,,5e647745fd12ef1f6e4aff08,Male,25,2020-03-24_13h57.54.268,monotonicicty_v2,3.2.4,Win32,60,,,,,,,,,,,,,m,1,0.946000099,2,0,12,5,1,11,0.19,0.19,0.19,0.19,0.19,0.19,black,
,,,,,,,,,,,,,,,"[-0.5,0]","[-0.3,0]","[0.1,0]","[0.5,0]","[-0.1,0]","[0.3,0]",,,,,,,,,,,,,,,,,,,,,,,c,UE,,5e647745fd12ef1f6e4aff08,Male,25,2020-03-24_13h57.54.268,monotonicicty_v2,3.2.4,Win32,60,,,,,,,,,,,,,m,0,2.323000193,2,0,12,0,1,11,0.09,0.09,0.09,0.09,0.09,0.19,black,
,,,,,,,,,,,,,,,"[0.1,0]","[0.3,0]","[-0.5,0]","[-0.1,0]","[0.5,0]","[-0.3,0]",,,,,,,,,,,,,,,,,,,,,,,m,UE,,5e647745fd12ef1f6e4aff08,Male,25,2020-03-24_13h57.54.268,monotonicicty_v2,3.2.4,Win32,60,,,,,,,,,,,,,m,1,1.339999914,2,0,12,4,1,11,0.09,0.19,0.19,0.19,0.19,0.19,black,
,,,,,,,,,,,,,,,"[0.3,0]","[0.1,0]","[-0.5,0]","[0.5,0]","[-0.1,0]","[-0.3,0]",,,,,,,,,,,,,,,,,,,,,,,c,UE,,5e647745fd12ef1f6e4aff08,Male,25,2020-03-24_13h57.54.268,monotonicicty_v2,3.2.4,Win32,60,,,,,,,,,,,,,m,0,1.846999884,2,0,12,1,1,11,0.09,0.09,0.09,0.09,0.19,0.19,black,
,,,,,,,,,,,,,,,"[-0.1,0]","[-0.3,0]","[0.1,0]","[0.5,0]","[0.3,0]","[-0.5,0]",,,,,,,,,,,,,,,,,,,,,,,m,UE,,5e647745fd12ef1f6e4aff08,Male,25,2020-03-24_13h57.54.268,monotonicicty_v2,3.2.4,Win32,60,,,,,,,,,,,,,m,1,1.078000069,2,0,12,3,1,11,0.09,0.09,0.19,0.19,0.19,0.19,black,
,,,,,,,,,,,,,,,,,,,,,,,,,,,,,,,,,,,,,,,,,,,,,,5e647745fd12ef1f6e4aff08,Male,25,2020-03-24_13h57.54.268,monotonicicty_v2,3.2.4,Win32,60,,,,,,,,,,,,,,,,,,,,,,,,,,,,,more than 3
