mouse_consent.x,mouse_consent.y,mouse_consent.leftButton,mouse_consent.midButton,mouse_consent.rightButton,mouse_consent.time,mouse_consent.clicked_name,key_resp_introduction.keys,key_resp_introduction.rt,key_resp_instructions.keys,key_resp_instructions.rt,example_resp.keys,example_resp.rt,example_resp_2.keys,example_resp_2.rt,pol1,pol2,pol3,pol4,pol5,pol6,key_resp_monotonicity.keys,key_resp_monotonicity.corr,key_resp_monotonicity.rt,condition.thisRepN,condition.thisTrialN,condition.thisN,condition.thisIndex,condition.ran,condition.order,condFile,trials.thisRepN,trials.thisTrialN,trials.thisN,trials.thisIndex,trials.ran,trials.order,obj1,obj2,obj3,obj4,obj5,obj6,corrAns,quantifier,target,Prolific_ID*,gender,age,date,expName,psychopyVersion,OS,frameRate,key_resp.keys,key_resp.rt,break_look.thisRepN,break_look.thisTrialN,break_look.thisN,break_look.thisIndex,break_look.ran,break_look.order,key_resp_instruction_test.keys,key_resp_instruction_test.rt,size_rep.keys,size_rep.rt,rep_test.keys,rep_test.corr,rep_test.rt,test_trials.thisRepN,test_trials.thisTrialN,test_trials.thisN,test_trials.thisIndex,test_trials.ran,test_trials.order,s1,s2,s3,s4,s5,s6,col,typedWord
0.424479167,-0.415364583,1,0,0,28.102,consent_button,space,5.921000004,space,122.7739999,space,4.661000013,space,35.89999986,"[0.5,0]","[0.1,0]","[-0.5,0]","[-0.3,0]","[-0.1,0]","[0.3,0]",m,1,1.701999903,1,0,8,2,1,7,monotonicity_b3_UE.xlsx,2,0,12,0,1,11,green,green,green,green,green,red,m,UE,red,5b6eba1aaf4af50001357228,female,46,2020-03-24_17h55.57.313,monotonicicty_v2,3.2.4,Win32,60,,,,,,,,,,,,,,,,,,,,,,,,,,,,,
,,,,,,,,,,,,,,,"[0.5,0]","[0.1,0]","[0.3,0]","[-0.1,0]","[-0.3,0]","[-0.5,0]",c,0,2.479000092,1,0,8,2,1,7,monotonicity_b3_UE.xlsx,2,0,12,2,1,11,green,green,green,red,red,red,m,UE,red,5b6eba1aaf4af50001357228,female,46,2020-03-24_17h55.57.313,monotonicicty_v2,3.2.4,Win32,60,,,,,,,,,,,,,,,,,,,,,,,,,,,,,
,,,,,,,,,,,,,,,"[-0.3,0]","[0.1,0]","[0.5,0]","[-0.1,0]","[-0.5,0]","[0.3,0]",m,1,5.087000132,1,0,8,2,1,7,monotonicity_b3_UE.xlsx,2,0,12,1,1,11,green,green,green,green,red,red,m,UE,red,5b6eba1aaf4af50001357228,female,46,2020-03-24_17h55.57.313,monotonicicty_v2,3.2.4,Win32,60,,,,,,,,,,,,,,,,,,,,,,,,,,,,,
,,,,,,,,,,,,,,,"[0.5,0]","[-0.5,0]","[-0.3,0]","[-0.1,0]","[0.3,0]","[0.1,0]",c,1,2.601000071,1,0,8,2,1,7,monotonicity_b3_UE.xlsx,2,0,12,4,1,11,green,red,red,red,red,red,c,UE,red,5b6eba1aaf4af50001357228,female,46,2020-03-24_17h55.57.313,monotonicicty_v2,3.2.4,Win32,60,,,,,,,,,,,,,,,,,,,,,,,,,,,,,
,,,,,,,,,,,,,,,"[-0.1,0]","[-0.5,0]","[0.3,0]","[0.5,0]","[-0.3,0]","[0.1,0]",c,1,3.072999954,1,0,8,2,1,7,monotonicity_b3_UE.xlsx,2,0,12,3,1,11,green,green,red,red,red,red,c,UE,red,5b6eba1aaf4af50001357228,female,46,2020-03-24_17h55.57.313,monotonicicty_v2,3.2.4,Win32,60,,,,,,,,,,,,,,,,,,,,,,,,,,,,,
,,,,,,,,,,,,,,,"[-0.1,0]","[0.5,0]","[0.1,0]","[-0.5,0]","[0.3,0]","[-0.3,0]",m,0,1.468999863,1,0,8,2,1,7,monotonicity_b3_UE.xlsx,2,0,12,5,1,11,red,red,red,red,red,red,c,UE,red,5b6eba1aaf4af50001357228,female,46,2020-03-24_17h55.57.313,monotonicicty_v2,3.2.4,Win32,60,,,,,,,,,,,,,,,,,,,,,,,,,,,,,
,,,,,,,,,,,,,,,"[0.1,0]","[-0.1,0]","[0.5,0]","[-0.3,0]","[0.3,0]","[-0.5,0]",c,1,1.634000063,1,0,8,2,1,7,monotonicity_b3_UE.xlsx,2,0,12,3,1,11,green,green,red,red,red,red,c,UE,red,5b6eba1aaf4af50001357228,female,46,2020-03-24_17h55.57.313,monotonicicty_v2,3.2.4,Win32,60,,,,,,,,,,,,,,,,,,,,,,,,,,,,,
,,,,,,,,,,,,,,,"[-0.5,0]","[-0.1,0]","[-0.3,0]","[0.5,0]","[0.1,0]","[0.3,0]",c,1,1.927000046,1,0,8,2,1,7,monotonicity_b3_UE.xlsx,2,0,12,4,1,11,green,red,red,red,red,red,c,UE,red,5b6eba1aaf4af50001357228,female,46,2020-03-24_17h55.57.313,monotonicicty_v2,3.2.4,Win32,60,,,,,,,,,,,,,,,,,,,,,,,,,,,,,
,,,,,,,,,,,,,,,"[-0.1,0]","[0.1,0]","[-0.5,0]","[0.3,0]","[0.5,0]","[-0.3,0]",m,1,1.425000191,1,0,8,2,1,7,monotonicity_b3_UE.xlsx,2,0,12,2,1,11,green,green,green,red,red,red,m,UE,red,5b6eba1aaf4af50001357228,female,46,2020-03-24_17h55.57.313,monotonicicty_v2,3.2.4,Win32,60,,,,,,,,,,,,,,,,,,,,,,,,,,,,,
,,,,,,,,,,,,,,,"[-0.5,0]","[0.5,0]","[0.1,0]","[0.3,0]","[-0.1,0]","[-0.3,0]",c,1,0.821000099,1,0,8,2,1,7,monotonicity_b3_UE.xlsx,2,0,12,5,1,11,red,red,red,red,red,red,c,UE,red,5b6eba1aaf4af50001357228,female,46,2020-03-24_17h55.57.313,monotonicicty_v2,3.2.4,Win32,60,,,,,,,,,,,,,,,,,,,,,,,,,,,,,
,,,,,,,,,,,,,,,"[-0.3,0]","[-0.5,0]","[-0.1,0]","[0.3,0]","[0.5,0]","[0.1,0]",m,1,0.960999966,1,0,8,2,1,7,monotonicity_b3_UE.xlsx,2,0,12,1,1,11,green,green,green,green,red,red,m,UE,red,5b6eba1aaf4af50001357228,female,46,2020-03-24_17h55.57.313,monotonicicty_v2,3.2.4,Win32,60,,,,,,,,,,,,,,,,,,,,,,,,,,,,,
,,,,,,,,,,,,,,,"[0.3,0]","[-0.1,0]","[-0.3,0]","[0.1,0]","[0.5,0]","[-0.5,0]",m,1,2.40199995,1,0,8,2,1,7,monotonicity_b3_UE.xlsx,2,0,12,0,1,11,green,green,green,green,green,red,m,UE,red,5b6eba1aaf4af50001357228,female,46,2020-03-24_17h55.57.313,monotonicicty_v2,3.2.4,Win32,60,,,,,,,,,,,,,,,,,,,,,,,,,,,,,
,,,,,,,,,,,,,,,,,,,,,,,,1,0,8,2,1,7,monotonicity_b3_UE.xlsx,,,,,,,,,,,,,,,,5b6eba1aaf4af50001357228,female,46,2020-03-24_17h55.57.313,monotonicicty_v2,3.2.4,Win32,60,space,4.532999992,1,0,1,0,1,0,,,,,,,,,,,,,,,,,,,,,
,,,,,,,,,,,,,,,,,,,,,,,,1,0,8,2,1,7,monotonicity_b3_UE.xlsx,,,,,,,,,,,,,,,,5b6eba1aaf4af50001357228,female,46,2020-03-24_17h55.57.313,monotonicicty_v2,3.2.4,Win32,60,,,,,,,,,,,,,,,,,,,,,,,,,,,,,
,,,,,,,,,,,,,,,"[-0.1,0]","[0.5,0]","[-0.5,0]","[0.1,0]","[-0.3,0]","[0.3,0]",c,0,3.134000063,1,0,8,5,1,7,monotonicity_b6_UE.xlsx,2,0,12,2,1,11,yellow,yellow,yellow,green,green,green,m,UE,green,5b6eba1aaf4af50001357228,female,46,2020-03-24_17h55.57.313,monotonicicty_v2,3.2.4,Win32,60,,,,,,,,,,,,,,,,,,,,,,,,,,,,,
,,,,,,,,,,,,,,,"[-0.3,0]","[-0.1,0]","[0.3,0]","[0.5,0]","[0.1,0]","[-0.5,0]",c,0,3.42599988,1,0,8,5,1,7,monotonicity_b6_UE.xlsx,2,0,12,0,1,11,yellow,yellow,yellow,yellow,yellow,green,m,UE,green,5b6eba1aaf4af50001357228,female,46,2020-03-24_17h55.57.313,monotonicicty_v2,3.2.4,Win32,60,,,,,,,,,,,,,,,,,,,,,,,,,,,,,
,,,,,,,,,,,,,,,"[0.5,0]","[-0.3,0]","[0.1,0]","[-0.1,0]","[0.3,0]","[-0.5,0]",m,0,3.401000023,1,0,8,5,1,7,monotonicity_b6_UE.xlsx,2,0,12,3,1,11,yellow,yellow,green,green,green,green,c,UE,green,5b6eba1aaf4af50001357228,female,46,2020-03-24_17h55.57.313,monotonicicty_v2,3.2.4,Win32,60,,,,,,,,,,,,,,,,,,,,,,,,,,,,,
,,,,,,,,,,,,,,,"[-0.1,0]","[0.5,0]","[0.3,0]","[-0.3,0]","[-0.5,0]","[0.1,0]",c,0,8.694999933,1,0,8,5,1,7,monotonicity_b6_UE.xlsx,2,0,12,1,1,11,yellow,yellow,yellow,yellow,green,green,m,UE,green,5b6eba1aaf4af50001357228,female,46,2020-03-24_17h55.57.313,monotonicicty_v2,3.2.4,Win32,60,,,,,,,,,,,,,,,,,,,,,,,,,,,,,
,,,,,,,,,,,,,,,"[0.5,0]","[0.1,0]","[-0.5,0]","[-0.1,0]","[0.3,0]","[-0.3,0]",c,1,2.894000053,1,0,8,5,1,7,monotonicity_b6_UE.xlsx,2,0,12,4,1,11,yellow,green,green,green,green,green,c,UE,green,5b6eba1aaf4af50001357228,female,46,2020-03-24_17h55.57.313,monotonicicty_v2,3.2.4,Win32,60,,,,,,,,,,,,,,,,,,,,,,,,,,,,,
,,,,,,,,,,,,,,,"[0.1,0]","[-0.5,0]","[0.3,0]","[-0.3,0]","[-0.1,0]","[0.5,0]",c,1,0.89199996,1,0,8,5,1,7,monotonicity_b6_UE.xlsx,2,0,12,5,1,11,green,green,green,green,green,green,c,UE,green,5b6eba1aaf4af50001357228,female,46,2020-03-24_17h55.57.313,monotonicicty_v2,3.2.4,Win32,60,,,,,,,,,,,,,,,,,,,,,,,,,,,,,
,,,,,,,,,,,,,,,"[0.5,0]","[-0.1,0]","[-0.5,0]","[0.3,0]","[0.1,0]","[-0.3,0]",m,1,1.084000111,1,0,8,5,1,7,monotonicity_b6_UE.xlsx,2,0,12,1,1,11,yellow,yellow,yellow,yellow,green,green,m,UE,green,5b6eba1aaf4af50001357228,female,46,2020-03-24_17h55.57.313,monotonicicty_v2,3.2.4,Win32,60,,,,,,,,,,,,,,,,,,,,,,,,,,,,,
,,,,,,,,,,,,,,,"[0.5,0]","[-0.1,0]","[0.1,0]","[0.3,0]","[-0.3,0]","[-0.5,0]",c,1,1.573999882,1,0,8,5,1,7,monotonicity_b6_UE.xlsx,2,0,12,4,1,11,yellow,green,green,green,green,green,c,UE,green,5b6eba1aaf4af50001357228,female,46,2020-03-24_17h55.57.313,monotonicicty_v2,3.2.4,Win32,60,,,,,,,,,,,,,,,,,,,,,,,,,,,,,
,,,,,,,,,,,,,,,"[-0.3,0]","[-0.1,0]","[-0.5,0]","[0.1,0]","[0.3,0]","[0.5,0]",m,1,2.029000044,1,0,8,5,1,7,monotonicity_b6_UE.xlsx,2,0,12,2,1,11,yellow,yellow,yellow,green,green,green,m,UE,green,5b6eba1aaf4af50001357228,female,46,2020-03-24_17h55.57.313,monotonicicty_v2,3.2.4,Win32,60,,,,,,,,,,,,,,,,,,,,,,,,,,,,,
,,,,,,,,,,,,,,,"[0.5,0]","[0.3,0]","[0.1,0]","[-0.3,0]","[-0.5,0]","[-0.1,0]",m,1,2.035000086,1,0,8,5,1,7,monotonicity_b6_UE.xlsx,2,0,12,0,1,11,yellow,yellow,yellow,yellow,yellow,green,m,UE,green,5b6eba1aaf4af50001357228,female,46,2020-03-24_17h55.57.313,monotonicicty_v2,3.2.4,Win32,60,,,,,,,,,,,,,,,,,,,,,,,,,,,,,
,,,,,,,,,,,,,,,"[-0.5,0]","[0.1,0]","[0.3,0]","[-0.3,0]","[0.5,0]","[-0.1,0]",c,1,0.752000093,1,0,8,5,1,7,monotonicity_b6_UE.xlsx,2,0,12,5,1,11,green,green,green,green,green,green,c,UE,green,5b6eba1aaf4af50001357228,female,46,2020-03-24_17h55.57.313,monotonicicty_v2,3.2.4,Win32,60,,,,,,,,,,,,,,,,,,,,,,,,,,,,,
,,,,,,,,,,,,,,,"[0.1,0]","[-0.3,0]","[0.5,0]","[0.3,0]","[-0.1,0]","[-0.5,0]",c,1,1.363000154,1,0,8,5,1,7,monotonicity_b6_UE.xlsx,2,0,12,3,1,11,yellow,yellow,green,green,green,green,c,UE,green,5b6eba1aaf4af50001357228,female,46,2020-03-24_17h55.57.313,monotonicicty_v2,3.2.4,Win32,60,,,,,,,,,,,,,,,,,,,,,,,,,,,,,
,,,,,,,,,,,,,,,,,,,,,,,,1,0,8,5,1,7,monotonicity_b6_UE.xlsx,,,,,,,,,,,,,,,,5b6eba1aaf4af50001357228,female,46,2020-03-24_17h55.57.313,monotonicicty_v2,3.2.4,Win32,60,space,6.253000021,1,0,1,0,1,0,,,,,,,,,,,,,,,,,,,,,
,,,,,,,,,,,,,,,,,,,,,,,,1,0,8,5,1,7,monotonicity_b6_UE.xlsx,,,,,,,,,,,,,,,,5b6eba1aaf4af50001357228,female,46,2020-03-24_17h55.57.313,monotonicicty_v2,3.2.4,Win32,60,,,,,,,,,,,,,,,,,,,,,,,,,,,,,
,,,,,,,,,,,,,,,"[-0.1,0]","[-0.5,0]","[-0.3,0]","[0.5,0]","[0.3,0]","[0.1,0]",c,1,2.470000029,1,0,8,6,1,7,monotonicity_b7_UE.xlsx,2,0,12,3,1,11,red,red,green,green,green,green,c,UE,green,5b6eba1aaf4af50001357228,female,46,2020-03-24_17h55.57.313,monotonicicty_v2,3.2.4,Win32,60,,,,,,,,,,,,,,,,,,,,,,,,,,,,,
,,,,,,,,,,,,,,,"[0.5,0]","[0.1,0]","[-0.3,0]","[-0.5,0]","[0.3,0]","[-0.1,0]",c,1,1.251000166,1,0,8,6,1,7,monotonicity_b7_UE.xlsx,2,0,12,4,1,11,red,green,green,green,green,green,c,UE,green,5b6eba1aaf4af50001357228,female,46,2020-03-24_17h55.57.313,monotonicicty_v2,3.2.4,Win32,60,,,,,,,,,,,,,,,,,,,,,,,,,,,,,
,,,,,,,,,,,,,,,"[0.1,0]","[-0.3,0]","[-0.5,0]","[0.5,0]","[0.3,0]","[-0.1,0]",m,1,1.684000015,1,0,8,6,1,7,monotonicity_b7_UE.xlsx,2,0,12,0,1,11,red,red,red,red,red,green,m,UE,green,5b6eba1aaf4af50001357228,female,46,2020-03-24_17h55.57.313,monotonicicty_v2,3.2.4,Win32,60,,,,,,,,,,,,,,,,,,,,,,,,,,,,,
,,,,,,,,,,,,,,,"[-0.3,0]","[-0.1,0]","[0.5,0]","[0.1,0]","[0.3,0]","[-0.5,0]",m,1,2.167999983,1,0,8,6,1,7,monotonicity_b7_UE.xlsx,2,0,12,2,1,11,red,red,red,green,green,green,m,UE,green,5b6eba1aaf4af50001357228,female,46,2020-03-24_17h55.57.313,monotonicicty_v2,3.2.4,Win32,60,,,,,,,,,,,,,,,,,,,,,,,,,,,,,
,,,,,,,,,,,,,,,"[0.1,0]","[0.5,0]","[0.3,0]","[-0.1,0]","[-0.5,0]","[-0.3,0]",m,1,1.346000195,1,0,8,6,1,7,monotonicity_b7_UE.xlsx,2,0,12,1,1,11,red,red,red,red,green,green,m,UE,green,5b6eba1aaf4af50001357228,female,46,2020-03-24_17h55.57.313,monotonicicty_v2,3.2.4,Win32,60,,,,,,,,,,,,,,,,,,,,,,,,,,,,,
,,,,,,,,,,,,,,,"[0.3,0]","[0.5,0]","[-0.5,0]","[0.1,0]","[-0.3,0]","[-0.1,0]",c,1,0.900000095,1,0,8,6,1,7,monotonicity_b7_UE.xlsx,2,0,12,5,1,11,green,green,green,green,green,green,c,UE,green,5b6eba1aaf4af50001357228,female,46,2020-03-24_17h55.57.313,monotonicicty_v2,3.2.4,Win32,60,,,,,,,,,,,,,,,,,,,,,,,,,,,,,
,,,,,,,,,,,,,,,"[0.1,0]","[-0.3,0]","[0.3,0]","[-0.5,0]","[0.5,0]","[-0.1,0]",c,1,0.80700016,1,0,8,6,1,7,monotonicity_b7_UE.xlsx,2,0,12,5,1,11,green,green,green,green,green,green,c,UE,green,5b6eba1aaf4af50001357228,female,46,2020-03-24_17h55.57.313,monotonicicty_v2,3.2.4,Win32,60,,,,,,,,,,,,,,,,,,,,,,,,,,,,,
,,,,,,,,,,,,,,,"[0.1,0]","[-0.5,0]","[0.3,0]","[-0.3,0]","[-0.1,0]","[0.5,0]",m,1,1.036000013,1,0,8,6,1,7,monotonicity_b7_UE.xlsx,2,0,12,1,1,11,red,red,red,red,green,green,m,UE,green,5b6eba1aaf4af50001357228,female,46,2020-03-24_17h55.57.313,monotonicicty_v2,3.2.4,Win32,60,,,,,,,,,,,,,,,,,,,,,,,,,,,,,
,,,,,,,,,,,,,,,"[-0.3,0]","[0.3,0]","[-0.5,0]","[-0.1,0]","[0.1,0]","[0.5,0]",m,1,1.273999929,1,0,8,6,1,7,monotonicity_b7_UE.xlsx,2,0,12,2,1,11,red,red,red,green,green,green,m,UE,green,5b6eba1aaf4af50001357228,female,46,2020-03-24_17h55.57.313,monotonicicty_v2,3.2.4,Win32,60,,,,,,,,,,,,,,,,,,,,,,,,,,,,,
,,,,,,,,,,,,,,,"[0.5,0]","[0.3,0]","[-0.1,0]","[-0.3,0]","[0.1,0]","[-0.5,0]",m,1,0.954999924,1,0,8,6,1,7,monotonicity_b7_UE.xlsx,2,0,12,0,1,11,red,red,red,red,red,green,m,UE,green,5b6eba1aaf4af50001357228,female,46,2020-03-24_17h55.57.313,monotonicicty_v2,3.2.4,Win32,60,,,,,,,,,,,,,,,,,,,,,,,,,,,,,
,,,,,,,,,,,,,,,"[0.3,0]","[0.1,0]","[0.5,0]","[-0.3,0]","[-0.1,0]","[-0.5,0]",c,1,1.103999853,1,0,8,6,1,7,monotonicity_b7_UE.xlsx,2,0,12,3,1,11,red,red,green,green,green,green,c,UE,green,5b6eba1aaf4af50001357228,female,46,2020-03-24_17h55.57.313,monotonicicty_v2,3.2.4,Win32,60,,,,,,,,,,,,,,,,,,,,,,,,,,,,,
,,,,,,,,,,,,,,,"[-0.5,0]","[-0.1,0]","[-0.3,0]","[0.3,0]","[0.1,0]","[0.5,0]",c,1,0.720999956,1,0,8,6,1,7,monotonicity_b7_UE.xlsx,2,0,12,4,1,11,red,green,green,green,green,green,c,UE,green,5b6eba1aaf4af50001357228,female,46,2020-03-24_17h55.57.313,monotonicicty_v2,3.2.4,Win32,60,,,,,,,,,,,,,,,,,,,,,,,,,,,,,
,,,,,,,,,,,,,,,,,,,,,,,,1,0,8,6,1,7,monotonicity_b7_UE.xlsx,,,,,,,,,,,,,,,,5b6eba1aaf4af50001357228,female,46,2020-03-24_17h55.57.313,monotonicicty_v2,3.2.4,Win32,60,space,3.675000191,1,0,1,0,1,0,,,,,,,,,,,,,,,,,,,,,
,,,,,,,,,,,,,,,,,,,,,,,,1,0,8,6,1,7,monotonicity_b7_UE.xlsx,,,,,,,,,,,,,,,,5b6eba1aaf4af50001357228,female,46,2020-03-24_17h55.57.313,monotonicicty_v2,3.2.4,Win32,60,,,,,,,,,,,,,,,,,,,,,,,,,,,,,
,,,,,,,,,,,,,,,"[-0.5,0]","[0.3,0]","[-0.1,0]","[-0.3,0]","[0.5,0]","[0.1,0]",m,1,2.044000149,1,0,8,0,1,7,monotonicity_b1_UE.xlsx,2,0,12,1,1,11,blue,blue,blue,blue,red,red,m,UE,red,5b6eba1aaf4af50001357228,female,46,2020-03-24_17h55.57.313,monotonicicty_v2,3.2.4,Win32,60,,,,,,,,,,,,,,,,,,,,,,,,,,,,,
,,,,,,,,,,,,,,,"[0.5,0]","[0.3,0]","[0.1,0]","[-0.3,0]","[-0.1,0]","[-0.5,0]",c,1,1.05099988,1,0,8,0,1,7,monotonicity_b1_UE.xlsx,2,0,12,3,1,11,blue,blue,red,red,red,red,c,UE,red,5b6eba1aaf4af50001357228,female,46,2020-03-24_17h55.57.313,monotonicicty_v2,3.2.4,Win32,60,,,,,,,,,,,,,,,,,,,,,,,,,,,,,
,,,,,,,,,,,,,,,"[-0.5,0]","[-0.3,0]","[0.1,0]","[-0.1,0]","[0.3,0]","[0.5,0]",c,1,0.63499999,1,0,8,0,1,7,monotonicity_b1_UE.xlsx,2,0,12,4,1,11,blue,red,red,red,red,red,c,UE,red,5b6eba1aaf4af50001357228,female,46,2020-03-24_17h55.57.313,monotonicicty_v2,3.2.4,Win32,60,,,,,,,,,,,,,,,,,,,,,,,,,,,,,
,,,,,,,,,,,,,,,"[-0.3,0]","[0.1,0]","[-0.1,0]","[-0.5,0]","[0.3,0]","[0.5,0]",c,1,0.684999943,1,0,8,0,1,7,monotonicity_b1_UE.xlsx,2,0,12,5,1,11,red,red,red,red,red,red,c,UE,red,5b6eba1aaf4af50001357228,female,46,2020-03-24_17h55.57.313,monotonicicty_v2,3.2.4,Win32,60,,,,,,,,,,,,,,,,,,,,,,,,,,,,,
,,,,,,,,,,,,,,,"[0.5,0]","[-0.5,0]","[-0.3,0]","[0.3,0]","[-0.1,0]","[0.1,0]",m,1,0.789000034,1,0,8,0,1,7,monotonicity_b1_UE.xlsx,2,0,12,0,1,11,blue,blue,blue,blue,blue,red,m,UE,red,5b6eba1aaf4af50001357228,female,46,2020-03-24_17h55.57.313,monotonicicty_v2,3.2.4,Win32,60,,,,,,,,,,,,,,,,,,,,,,,,,,,,,
,,,,,,,,,,,,,,,"[0.5,0]","[0.3,0]","[-0.1,0]","[-0.3,0]","[0.1,0]","[-0.5,0]",m,1,3.524000168,1,0,8,0,1,7,monotonicity_b1_UE.xlsx,2,0,12,2,1,11,blue,blue,blue,red,red,red,m,UE,red,5b6eba1aaf4af50001357228,female,46,2020-03-24_17h55.57.313,monotonicicty_v2,3.2.4,Win32,60,,,,,,,,,,,,,,,,,,,,,,,,,,,,,
,,,,,,,,,,,,,,,"[0.1,0]","[-0.5,0]","[0.3,0]","[0.5,0]","[-0.3,0]","[-0.1,0]",m,1,1.589999914,1,0,8,0,1,7,monotonicity_b1_UE.xlsx,2,0,12,2,1,11,blue,blue,blue,red,red,red,m,UE,red,5b6eba1aaf4af50001357228,female,46,2020-03-24_17h55.57.313,monotonicicty_v2,3.2.4,Win32,60,,,,,,,,,,,,,,,,,,,,,,,,,,,,,
,,,,,,,,,,,,,,,"[0.5,0]","[-0.5,0]","[-0.3,0]","[-0.1,0]","[0.1,0]","[0.3,0]",m,1,0.852999926,1,0,8,0,1,7,monotonicity_b1_UE.xlsx,2,0,12,1,1,11,blue,blue,blue,blue,red,red,m,UE,red,5b6eba1aaf4af50001357228,female,46,2020-03-24_17h55.57.313,monotonicicty_v2,3.2.4,Win32,60,,,,,,,,,,,,,,,,,,,,,,,,,,,,,
,,,,,,,,,,,,,,,"[-0.1,0]","[-0.5,0]","[-0.3,0]","[0.3,0]","[0.1,0]","[0.5,0]",m,1,1.042999983,1,0,8,0,1,7,monotonicity_b1_UE.xlsx,2,0,12,0,1,11,blue,blue,blue,blue,blue,red,m,UE,red,5b6eba1aaf4af50001357228,female,46,2020-03-24_17h55.57.313,monotonicicty_v2,3.2.4,Win32,60,,,,,,,,,,,,,,,,,,,,,,,,,,,,,
,,,,,,,,,,,,,,,"[0.5,0]","[-0.3,0]","[-0.5,0]","[-0.1,0]","[0.3,0]","[0.1,0]",c,1,0.738999844,1,0,8,0,1,7,monotonicity_b1_UE.xlsx,2,0,12,5,1,11,red,red,red,red,red,red,c,UE,red,5b6eba1aaf4af50001357228,female,46,2020-03-24_17h55.57.313,monotonicicty_v2,3.2.4,Win32,60,,,,,,,,,,,,,,,,,,,,,,,,,,,,,
,,,,,,,,,,,,,,,"[-0.3,0]","[-0.5,0]","[0.5,0]","[-0.1,0]","[0.1,0]","[0.3,0]",c,1,0.702000141,1,0,8,0,1,7,monotonicity_b1_UE.xlsx,2,0,12,4,1,11,blue,red,red,red,red,red,c,UE,red,5b6eba1aaf4af50001357228,female,46,2020-03-24_17h55.57.313,monotonicicty_v2,3.2.4,Win32,60,,,,,,,,,,,,,,,,,,,,,,,,,,,,,
,,,,,,,,,,,,,,,"[0.1,0]","[-0.1,0]","[-0.3,0]","[-0.5,0]","[0.3,0]","[0.5,0]",c,1,1.036999941,1,0,8,0,1,7,monotonicity_b1_UE.xlsx,2,0,12,3,1,11,blue,blue,red,red,red,red,c,UE,red,5b6eba1aaf4af50001357228,female,46,2020-03-24_17h55.57.313,monotonicicty_v2,3.2.4,Win32,60,,,,,,,,,,,,,,,,,,,,,,,,,,,,,
,,,,,,,,,,,,,,,,,,,,,,,,1,0,8,0,1,7,monotonicity_b1_UE.xlsx,,,,,,,,,,,,,,,,5b6eba1aaf4af50001357228,female,46,2020-03-24_17h55.57.313,monotonicicty_v2,3.2.4,Win32,60,space,4.868000031,1,0,1,0,1,0,,,,,,,,,,,,,,,,,,,,,
,,,,,,,,,,,,,,,,,,,,,,,,1,0,8,0,1,7,monotonicity_b1_UE.xlsx,,,,,,,,,,,,,,,,5b6eba1aaf4af50001357228,female,46,2020-03-24_17h55.57.313,monotonicicty_v2,3.2.4,Win32,60,,,,,,,,,,,,,,,,,,,,,,,,,,,,,
,,,,,,,,,,,,,,,"[-0.1,0]","[0.3,0]","[-0.3,0]","[0.5,0]","[-0.5,0]","[0.1,0]",m,1,1.546000004,1,0,8,3,1,7,monotonicity_b4_UE.xlsx,2,0,12,0,1,11,blue,blue,blue,blue,blue,yellow,m,UE,yellow,5b6eba1aaf4af50001357228,female,46,2020-03-24_17h55.57.313,monotonicicty_v2,3.2.4,Win32,60,,,,,,,,,,,,,,,,,,,,,,,,,,,,,
,,,,,,,,,,,,,,,"[-0.3,0]","[-0.5,0]","[0.5,0]","[0.1,0]","[-0.1,0]","[0.3,0]",m,1,1.204999924,1,0,8,3,1,7,monotonicity_b4_UE.xlsx,2,0,12,2,1,11,blue,blue,blue,yellow,yellow,yellow,m,UE,yellow,5b6eba1aaf4af50001357228,female,46,2020-03-24_17h55.57.313,monotonicicty_v2,3.2.4,Win32,60,,,,,,,,,,,,,,,,,,,,,,,,,,,,,
,,,,,,,,,,,,,,,"[-0.1,0]","[0.1,0]","[-0.5,0]","[0.3,0]","[0.5,0]","[-0.3,0]",c,1,0.687000036,1,0,8,3,1,7,monotonicity_b4_UE.xlsx,2,0,12,5,1,11,yellow,yellow,yellow,yellow,yellow,yellow,c,UE,yellow,5b6eba1aaf4af50001357228,female,46,2020-03-24_17h55.57.313,monotonicicty_v2,3.2.4,Win32,60,,,,,,,,,,,,,,,,,,,,,,,,,,,,,
,,,,,,,,,,,,,,,"[0.5,0]","[0.1,0]","[-0.5,0]","[0.3,0]","[-0.1,0]","[-0.3,0]",m,1,0.684999943,1,0,8,3,1,7,monotonicity_b4_UE.xlsx,2,0,12,1,1,11,blue,blue,blue,blue,yellow,yellow,m,UE,yellow,5b6eba1aaf4af50001357228,female,46,2020-03-24_17h55.57.313,monotonicicty_v2,3.2.4,Win32,60,,,,,,,,,,,,,,,,,,,,,,,,,,,,,
,,,,,,,,,,,,,,,"[-0.5,0]","[-0.1,0]","[0.5,0]","[0.3,0]","[0.1,0]","[-0.3,0]",c,1,0.710999966,1,0,8,3,1,7,monotonicity_b4_UE.xlsx,2,0,12,4,1,11,blue,yellow,yellow,yellow,yellow,yellow,c,UE,yellow,5b6eba1aaf4af50001357228,female,46,2020-03-24_17h55.57.313,monotonicicty_v2,3.2.4,Win32,60,,,,,,,,,,,,,,,,,,,,,,,,,,,,,
,,,,,,,,,,,,,,,"[0.1,0]","[-0.3,0]","[0.3,0]","[-0.1,0]","[-0.5,0]","[0.5,0]",c,1,2.110000134,1,0,8,3,1,7,monotonicity_b4_UE.xlsx,2,0,12,3,1,11,blue,blue,yellow,yellow,yellow,yellow,c,UE,yellow,5b6eba1aaf4af50001357228,female,46,2020-03-24_17h55.57.313,monotonicicty_v2,3.2.4,Win32,60,,,,,,,,,,,,,,,,,,,,,,,,,,,,,
,,,,,,,,,,,,,,,"[-0.1,0]","[-0.5,0]","[0.1,0]","[0.5,0]","[-0.3,0]","[0.3,0]",c,1,1.335000038,1,0,8,3,1,7,monotonicity_b4_UE.xlsx,2,0,12,4,1,11,blue,yellow,yellow,yellow,yellow,yellow,c,UE,yellow,5b6eba1aaf4af50001357228,female,46,2020-03-24_17h55.57.313,monotonicicty_v2,3.2.4,Win32,60,,,,,,,,,,,,,,,,,,,,,,,,,,,,,
,,,,,,,,,,,,,,,"[-0.3,0]","[0.1,0]","[0.3,0]","[-0.1,0]","[0.5,0]","[-0.5,0]",c,1,0.587000132,1,0,8,3,1,7,monotonicity_b4_UE.xlsx,2,0,12,5,1,11,yellow,yellow,yellow,yellow,yellow,yellow,c,UE,yellow,5b6eba1aaf4af50001357228,female,46,2020-03-24_17h55.57.313,monotonicicty_v2,3.2.4,Win32,60,,,,,,,,,,,,,,,,,,,,,,,,,,,,,
,,,,,,,,,,,,,,,"[-0.1,0]","[0.1,0]","[-0.5,0]","[0.5,0]","[0.3,0]","[-0.3,0]",m,1,1.194000006,1,0,8,3,1,7,monotonicity_b4_UE.xlsx,2,0,12,2,1,11,blue,blue,blue,yellow,yellow,yellow,m,UE,yellow,5b6eba1aaf4af50001357228,female,46,2020-03-24_17h55.57.313,monotonicicty_v2,3.2.4,Win32,60,,,,,,,,,,,,,,,,,,,,,,,,,,,,,
,,,,,,,,,,,,,,,"[-0.1,0]","[0.3,0]","[-0.3,0]","[-0.5,0]","[0.5,0]","[0.1,0]",c,1,1.02699995,1,0,8,3,1,7,monotonicity_b4_UE.xlsx,2,0,12,3,1,11,blue,blue,yellow,yellow,yellow,yellow,c,UE,yellow,5b6eba1aaf4af50001357228,female,46,2020-03-24_17h55.57.313,monotonicicty_v2,3.2.4,Win32,60,,,,,,,,,,,,,,,,,,,,,,,,,,,,,
,,,,,,,,,,,,,,,"[-0.5,0]","[-0.3,0]","[-0.1,0]","[0.3,0]","[0.5,0]","[0.1,0]",m,1,0.801000118,1,0,8,3,1,7,monotonicity_b4_UE.xlsx,2,0,12,1,1,11,blue,blue,blue,blue,yellow,yellow,m,UE,yellow,5b6eba1aaf4af50001357228,female,46,2020-03-24_17h55.57.313,monotonicicty_v2,3.2.4,Win32,60,,,,,,,,,,,,,,,,,,,,,,,,,,,,,
,,,,,,,,,,,,,,,"[-0.5,0]","[-0.3,0]","[0.1,0]","[-0.1,0]","[0.3,0]","[0.5,0]",m,1,1.054000139,1,0,8,3,1,7,monotonicity_b4_UE.xlsx,2,0,12,0,1,11,blue,blue,blue,blue,blue,yellow,m,UE,yellow,5b6eba1aaf4af50001357228,female,46,2020-03-24_17h55.57.313,monotonicicty_v2,3.2.4,Win32,60,,,,,,,,,,,,,,,,,,,,,,,,,,,,,
,,,,,,,,,,,,,,,,,,,,,,,,1,0,8,3,1,7,monotonicity_b4_UE.xlsx,,,,,,,,,,,,,,,,5b6eba1aaf4af50001357228,female,46,2020-03-24_17h55.57.313,monotonicicty_v2,3.2.4,Win32,60,space,2.385999918,1,0,1,0,1,0,,,,,,,,,,,,,,,,,,,,,
,,,,,,,,,,,,,,,,,,,,,,,,1,0,8,3,1,7,monotonicity_b4_UE.xlsx,,,,,,,,,,,,,,,,5b6eba1aaf4af50001357228,female,46,2020-03-24_17h55.57.313,monotonicicty_v2,3.2.4,Win32,60,,,,,,,,,,,,,,,,,,,,,,,,,,,,,
,,,,,,,,,,,,,,,"[0.1,0]","[0.3,0]","[-0.3,0]","[-0.5,0]","[-0.1,0]","[0.5,0]",c,1,1.510999918,1,0,8,7,1,7,monotonicity_b8_UE.xlsx,2,0,12,5,1,11,blue,blue,blue,blue,blue,blue,c,UE,blue,5b6eba1aaf4af50001357228,female,46,2020-03-24_17h55.57.313,monotonicicty_v2,3.2.4,Win32,60,,,,,,,,,,,,,,,,,,,,,,,,,,,,,
,,,,,,,,,,,,,,,"[-0.1,0]","[0.3,0]","[0.1,0]","[-0.3,0]","[-0.5,0]","[0.5,0]",c,1,0.835000038,1,0,8,7,1,7,monotonicity_b8_UE.xlsx,2,0,12,4,1,11,yellow,blue,blue,blue,blue,blue,c,UE,blue,5b6eba1aaf4af50001357228,female,46,2020-03-24_17h55.57.313,monotonicicty_v2,3.2.4,Win32,60,,,,,,,,,,,,,,,,,,,,,,,,,,,,,
,,,,,,,,,,,,,,,"[-0.5,0]","[-0.1,0]","[-0.3,0]","[0.3,0]","[0.5,0]","[0.1,0]",m,1,1.180999994,1,0,8,7,1,7,monotonicity_b8_UE.xlsx,2,0,12,2,1,11,yellow,yellow,yellow,blue,blue,blue,m,UE,blue,5b6eba1aaf4af50001357228,female,46,2020-03-24_17h55.57.313,monotonicicty_v2,3.2.4,Win32,60,,,,,,,,,,,,,,,,,,,,,,,,,,,,,
,,,,,,,,,,,,,,,"[-0.5,0]","[0.3,0]","[0.5,0]","[0.1,0]","[-0.3,0]","[-0.1,0]",m,1,0.875999928,1,0,8,7,1,7,monotonicity_b8_UE.xlsx,2,0,12,1,1,11,yellow,yellow,yellow,yellow,blue,blue,m,UE,blue,5b6eba1aaf4af50001357228,female,46,2020-03-24_17h55.57.313,monotonicicty_v2,3.2.4,Win32,60,,,,,,,,,,,,,,,,,,,,,,,,,,,,,
,,,,,,,,,,,,,,,"[-0.3,0]","[0.3,0]","[0.5,0]","[0.1,0]","[-0.5,0]","[-0.1,0]",m,1,0.819999933,1,0,8,7,1,7,monotonicity_b8_UE.xlsx,2,0,12,0,1,11,yellow,yellow,yellow,yellow,yellow,blue,m,UE,blue,5b6eba1aaf4af50001357228,female,46,2020-03-24_17h55.57.313,monotonicicty_v2,3.2.4,Win32,60,,,,,,,,,,,,,,,,,,,,,,,,,,,,,
,,,,,,,,,,,,,,,"[-0.5,0]","[0.5,0]","[-0.3,0]","[-0.1,0]","[0.1,0]","[0.3,0]",c,1,0.72300005,1,0,8,7,1,7,monotonicity_b8_UE.xlsx,2,0,12,3,1,11,yellow,yellow,blue,blue,blue,blue,c,UE,blue,5b6eba1aaf4af50001357228,female,46,2020-03-24_17h55.57.313,monotonicicty_v2,3.2.4,Win32,60,,,,,,,,,,,,,,,,,,,,,,,,,,,,,
,,,,,,,,,,,,,,,"[-0.5,0]","[-0.3,0]","[0.5,0]","[0.1,0]","[-0.1,0]","[0.3,0]",m,1,0.725000143,1,0,8,7,1,7,monotonicity_b8_UE.xlsx,2,0,12,0,1,11,yellow,yellow,yellow,yellow,yellow,blue,m,UE,blue,5b6eba1aaf4af50001357228,female,46,2020-03-24_17h55.57.313,monotonicicty_v2,3.2.4,Win32,60,,,,,,,,,,,,,,,,,,,,,,,,,,,,,
,,,,,,,,,,,,,,,"[0.5,0]","[-0.5,0]","[0.3,0]","[-0.1,0]","[-0.3,0]","[0.1,0]",c,1,0.676999807,1,0,8,7,1,7,monotonicity_b8_UE.xlsx,2,0,12,3,1,11,yellow,yellow,blue,blue,blue,blue,c,UE,blue,5b6eba1aaf4af50001357228,female,46,2020-03-24_17h55.57.313,monotonicicty_v2,3.2.4,Win32,60,,,,,,,,,,,,,,,,,,,,,,,,,,,,,
,,,,,,,,,,,,,,,"[-0.5,0]","[-0.1,0]","[0.3,0]","[0.5,0]","[0.1,0]","[-0.3,0]",m,1,1.309000015,1,0,8,7,1,7,monotonicity_b8_UE.xlsx,2,0,12,2,1,11,yellow,yellow,yellow,blue,blue,blue,m,UE,blue,5b6eba1aaf4af50001357228,female,46,2020-03-24_17h55.57.313,monotonicicty_v2,3.2.4,Win32,60,,,,,,,,,,,,,,,,,,,,,,,,,,,,,
,,,,,,,,,,,,,,,"[0.1,0]","[0.3,0]","[-0.1,0]","[-0.3,0]","[0.5,0]","[-0.5,0]",m,1,1.235000134,1,0,8,7,1,7,monotonicity_b8_UE.xlsx,2,0,12,1,1,11,yellow,yellow,yellow,yellow,blue,blue,m,UE,blue,5b6eba1aaf4af50001357228,female,46,2020-03-24_17h55.57.313,monotonicicty_v2,3.2.4,Win32,60,,,,,,,,,,,,,,,,,,,,,,,,,,,,,
,,,,,,,,,,,,,,,"[-0.5,0]","[0.5,0]","[0.3,0]","[-0.1,0]","[0.1,0]","[-0.3,0]",c,1,0.568000078,1,0,8,7,1,7,monotonicity_b8_UE.xlsx,2,0,12,5,1,11,blue,blue,blue,blue,blue,blue,c,UE,blue,5b6eba1aaf4af50001357228,female,46,2020-03-24_17h55.57.313,monotonicicty_v2,3.2.4,Win32,60,,,,,,,,,,,,,,,,,,,,,,,,,,,,,
,,,,,,,,,,,,,,,"[0.1,0]","[-0.1,0]","[0.3,0]","[0.5,0]","[-0.5,0]","[-0.3,0]",c,1,0.67200017,1,0,8,7,1,7,monotonicity_b8_UE.xlsx,2,0,12,4,1,11,yellow,blue,blue,blue,blue,blue,c,UE,blue,5b6eba1aaf4af50001357228,female,46,2020-03-24_17h55.57.313,monotonicicty_v2,3.2.4,Win32,60,,,,,,,,,,,,,,,,,,,,,,,,,,,,,
,,,,,,,,,,,,,,,,,,,,,,,,1,0,8,7,1,7,monotonicity_b8_UE.xlsx,,,,,,,,,,,,,,,,5b6eba1aaf4af50001357228,female,46,2020-03-24_17h55.57.313,monotonicicty_v2,3.2.4,Win32,60,space,3.421999931,1,0,1,0,1,0,,,,,,,,,,,,,,,,,,,,,
,,,,,,,,,,,,,,,,,,,,,,,,1,0,8,7,1,7,monotonicity_b8_UE.xlsx,,,,,,,,,,,,,,,,5b6eba1aaf4af50001357228,female,46,2020-03-24_17h55.57.313,monotonicicty_v2,3.2.4,Win32,60,,,,,,,,,,,,,,,,,,,,,,,,,,,,,
,,,,,,,,,,,,,,,"[-0.5,0]","[0.1,0]","[0.3,0]","[0.5,0]","[-0.1,0]","[-0.3,0]",m,1,1.836999893,1,0,8,1,1,7,monotonicity_b2_UE.xlsx,2,0,12,2,1,11,green,green,green,yellow,yellow,yellow,m,UE,yellow,5b6eba1aaf4af50001357228,female,46,2020-03-24_17h55.57.313,monotonicicty_v2,3.2.4,Win32,60,,,,,,,,,,,,,,,,,,,,,,,,,,,,,
,,,,,,,,,,,,,,,"[0.3,0]","[0.1,0]","[-0.3,0]","[-0.1,0]","[-0.5,0]","[0.5,0]",c,1,0.68599987,1,0,8,1,1,7,monotonicity_b2_UE.xlsx,2,0,12,4,1,11,green,yellow,yellow,yellow,yellow,yellow,c,UE,yellow,5b6eba1aaf4af50001357228,female,46,2020-03-24_17h55.57.313,monotonicicty_v2,3.2.4,Win32,60,,,,,,,,,,,,,,,,,,,,,,,,,,,,,
,,,,,,,,,,,,,,,"[-0.3,0]","[0.5,0]","[-0.1,0]","[0.3,0]","[0.1,0]","[-0.5,0]",m,1,0.79399991,1,0,8,1,1,7,monotonicity_b2_UE.xlsx,2,0,12,1,1,11,green,green,green,green,yellow,yellow,m,UE,yellow,5b6eba1aaf4af50001357228,female,46,2020-03-24_17h55.57.313,monotonicicty_v2,3.2.4,Win32,60,,,,,,,,,,,,,,,,,,,,,,,,,,,,,
,,,,,,,,,,,,,,,"[-0.5,0]","[0.5,0]","[0.1,0]","[0.3,0]","[-0.1,0]","[-0.3,0]",c,1,0.694000006,1,0,8,1,1,7,monotonicity_b2_UE.xlsx,2,0,12,3,1,11,green,green,yellow,yellow,yellow,yellow,c,UE,yellow,5b6eba1aaf4af50001357228,female,46,2020-03-24_17h55.57.313,monotonicicty_v2,3.2.4,Win32,60,,,,,,,,,,,,,,,,,,,,,,,,,,,,,
,,,,,,,,,,,,,,,"[-0.3,0]","[-0.5,0]","[0.1,0]","[0.5,0]","[0.3,0]","[-0.1,0]",m,1,0.736999989,1,0,8,1,1,7,monotonicity_b2_UE.xlsx,2,0,12,0,1,11,green,green,green,green,green,yellow,m,UE,yellow,5b6eba1aaf4af50001357228,female,46,2020-03-24_17h55.57.313,monotonicicty_v2,3.2.4,Win32,60,,,,,,,,,,,,,,,,,,,,,,,,,,,,,
,,,,,,,,,,,,,,,"[-0.5,0]","[0.5,0]","[0.1,0]","[-0.1,0]","[0.3,0]","[-0.3,0]",c,1,0.577000141,1,0,8,1,1,7,monotonicity_b2_UE.xlsx,2,0,12,5,1,11,yellow,yellow,yellow,yellow,yellow,yellow,c,UE,yellow,5b6eba1aaf4af50001357228,female,46,2020-03-24_17h55.57.313,monotonicicty_v2,3.2.4,Win32,60,,,,,,,,,,,,,,,,,,,,,,,,,,,,,
,,,,,,,,,,,,,,,"[-0.5,0]","[0.1,0]","[0.3,0]","[-0.1,0]","[0.5,0]","[-0.3,0]",m,1,0.758000135,1,0,8,1,1,7,monotonicity_b2_UE.xlsx,2,0,12,2,1,11,green,green,green,yellow,yellow,yellow,m,UE,yellow,5b6eba1aaf4af50001357228,female,46,2020-03-24_17h55.57.313,monotonicicty_v2,3.2.4,Win32,60,,,,,,,,,,,,,,,,,,,,,,,,,,,,,
,,,,,,,,,,,,,,,"[0.5,0]","[-0.5,0]","[-0.3,0]","[0.3,0]","[-0.1,0]","[0.1,0]",m,1,1.370999813,1,0,8,1,1,7,monotonicity_b2_UE.xlsx,2,0,12,0,1,11,green,green,green,green,green,yellow,m,UE,yellow,5b6eba1aaf4af50001357228,female,46,2020-03-24_17h55.57.313,monotonicicty_v2,3.2.4,Win32,60,,,,,,,,,,,,,,,,,,,,,,,,,,,,,
,,,,,,,,,,,,,,,"[0.1,0]","[-0.1,0]","[-0.3,0]","[0.5,0]","[0.3,0]","[-0.5,0]",c,1,1.588000059,1,0,8,1,1,7,monotonicity_b2_UE.xlsx,2,0,12,3,1,11,green,green,yellow,yellow,yellow,yellow,c,UE,yellow,5b6eba1aaf4af50001357228,female,46,2020-03-24_17h55.57.313,monotonicicty_v2,3.2.4,Win32,60,,,,,,,,,,,,,,,,,,,,,,,,,,,,,
,,,,,,,,,,,,,,,"[0.3,0]","[-0.3,0]","[-0.1,0]","[0.5,0]","[-0.5,0]","[0.1,0]",c,1,0.653000116,1,0,8,1,1,7,monotonicity_b2_UE.xlsx,2,0,12,4,1,11,green,yellow,yellow,yellow,yellow,yellow,c,UE,yellow,5b6eba1aaf4af50001357228,female,46,2020-03-24_17h55.57.313,monotonicicty_v2,3.2.4,Win32,60,,,,,,,,,,,,,,,,,,,,,,,,,,,,,
,,,,,,,,,,,,,,,"[0.1,0]","[-0.5,0]","[-0.1,0]","[0.3,0]","[-0.3,0]","[0.5,0]",m,1,0.621000051,1,0,8,1,1,7,monotonicity_b2_UE.xlsx,2,0,12,1,1,11,green,green,green,green,yellow,yellow,m,UE,yellow,5b6eba1aaf4af50001357228,female,46,2020-03-24_17h55.57.313,monotonicicty_v2,3.2.4,Win32,60,,,,,,,,,,,,,,,,,,,,,,,,,,,,,
,,,,,,,,,,,,,,,"[-0.5,0]","[-0.3,0]","[0.1,0]","[0.5,0]","[-0.1,0]","[0.3,0]",c,1,0.502000093,1,0,8,1,1,7,monotonicity_b2_UE.xlsx,2,0,12,5,1,11,yellow,yellow,yellow,yellow,yellow,yellow,c,UE,yellow,5b6eba1aaf4af50001357228,female,46,2020-03-24_17h55.57.313,monotonicicty_v2,3.2.4,Win32,60,,,,,,,,,,,,,,,,,,,,,,,,,,,,,
,,,,,,,,,,,,,,,,,,,,,,,,1,0,8,1,1,7,monotonicity_b2_UE.xlsx,,,,,,,,,,,,,,,,5b6eba1aaf4af50001357228,female,46,2020-03-24_17h55.57.313,monotonicicty_v2,3.2.4,Win32,60,space,3.122999907,1,0,1,0,1,0,,,,,,,,,,,,,,,,,,,,,
,,,,,,,,,,,,,,,,,,,,,,,,1,0,8,1,1,7,monotonicity_b2_UE.xlsx,,,,,,,,,,,,,,,,5b6eba1aaf4af50001357228,female,46,2020-03-24_17h55.57.313,monotonicicty_v2,3.2.4,Win32,60,,,,,,,,,,,,,,,,,,,,,,,,,,,,,
,,,,,,,,,,,,,,,"[-0.1,0]","[0.5,0]","[0.1,0]","[-0.5,0]","[-0.3,0]","[0.3,0]",m,1,1.546999931,1,0,8,4,1,7,monotonicity_b5_UE.xlsx,2,0,12,2,1,11,red,red,red,blue,blue,blue,m,UE,blue,5b6eba1aaf4af50001357228,female,46,2020-03-24_17h55.57.313,monotonicicty_v2,3.2.4,Win32,60,,,,,,,,,,,,,,,,,,,,,,,,,,,,,
,,,,,,,,,,,,,,,"[0.5,0]","[0.3,0]","[0.1,0]","[-0.3,0]","[-0.1,0]","[-0.5,0]",c,1,0.93599987,1,0,8,4,1,7,monotonicity_b5_UE.xlsx,2,0,12,3,1,11,red,red,blue,blue,blue,blue,c,UE,blue,5b6eba1aaf4af50001357228,female,46,2020-03-24_17h55.57.313,monotonicicty_v2,3.2.4,Win32,60,,,,,,,,,,,,,,,,,,,,,,,,,,,,,
,,,,,,,,,,,,,,,"[-0.3,0]","[0.5,0]","[-0.5,0]","[0.1,0]","[-0.1,0]","[0.3,0]",c,1,0.570999861,1,0,8,4,1,7,monotonicity_b5_UE.xlsx,2,0,12,5,1,11,blue,blue,blue,blue,blue,blue,c,UE,blue,5b6eba1aaf4af50001357228,female,46,2020-03-24_17h55.57.313,monotonicicty_v2,3.2.4,Win32,60,,,,,,,,,,,,,,,,,,,,,,,,,,,,,
,,,,,,,,,,,,,,,"[-0.1,0]","[0.5,0]","[0.3,0]","[-0.5,0]","[-0.3,0]","[0.1,0]",m,1,0.819999933,1,0,8,4,1,7,monotonicity_b5_UE.xlsx,2,0,12,1,1,11,red,red,red,red,blue,blue,m,UE,blue,5b6eba1aaf4af50001357228,female,46,2020-03-24_17h55.57.313,monotonicicty_v2,3.2.4,Win32,60,,,,,,,,,,,,,,,,,,,,,,,,,,,,,
,,,,,,,,,,,,,,,"[0.5,0]","[-0.5,0]","[0.1,0]","[0.3,0]","[-0.1,0]","[-0.3,0]",c,1,0.606000185,1,0,8,4,1,7,monotonicity_b5_UE.xlsx,2,0,12,4,1,11,red,blue,blue,blue,blue,blue,c,UE,blue,5b6eba1aaf4af50001357228,female,46,2020-03-24_17h55.57.313,monotonicicty_v2,3.2.4,Win32,60,,,,,,,,,,,,,,,,,,,,,,,,,,,,,
,,,,,,,,,,,,,,,"[-0.1,0]","[-0.3,0]","[0.5,0]","[0.1,0]","[0.3,0]","[-0.5,0]",m,1,1.119999886,1,0,8,4,1,7,monotonicity_b5_UE.xlsx,2,0,12,0,1,11,red,red,red,red,red,blue,m,UE,blue,5b6eba1aaf4af50001357228,female,46,2020-03-24_17h55.57.313,monotonicicty_v2,3.2.4,Win32,60,,,,,,,,,,,,,,,,,,,,,,,,,,,,,
,,,,,,,,,,,,,,,"[-0.3,0]","[0.3,0]","[0.5,0]","[0.1,0]","[-0.1,0]","[-0.5,0]",m,1,1.079999924,1,0,8,4,1,7,monotonicity_b5_UE.xlsx,2,0,12,0,1,11,red,red,red,red,red,blue,m,UE,blue,5b6eba1aaf4af50001357228,female,46,2020-03-24_17h55.57.313,monotonicicty_v2,3.2.4,Win32,60,,,,,,,,,,,,,,,,,,,,,,,,,,,,,
,,,,,,,,,,,,,,,"[0.3,0]","[0.1,0]","[-0.5,0]","[0.5,0]","[-0.1,0]","[-0.3,0]",c,1,0.769999981,1,0,8,4,1,7,monotonicity_b5_UE.xlsx,2,0,12,4,1,11,red,blue,blue,blue,blue,blue,c,UE,blue,5b6eba1aaf4af50001357228,female,46,2020-03-24_17h55.57.313,monotonicicty_v2,3.2.4,Win32,60,,,,,,,,,,,,,,,,,,,,,,,,,,,,,
,,,,,,,,,,,,,,,"[-0.5,0]","[0.3,0]","[0.1,0]","[-0.3,0]","[0.5,0]","[-0.1,0]",c,1,0.552000046,1,0,8,4,1,7,monotonicity_b5_UE.xlsx,2,0,12,5,1,11,blue,blue,blue,blue,blue,blue,c,UE,blue,5b6eba1aaf4af50001357228,female,46,2020-03-24_17h55.57.313,monotonicicty_v2,3.2.4,Win32,60,,,,,,,,,,,,,,,,,,,,,,,,,,,,,
,,,,,,,,,,,,,,,"[-0.3,0]","[0.1,0]","[0.3,0]","[-0.5,0]","[0.5,0]","[-0.1,0]",c,1,1.006000042,1,0,8,4,1,7,monotonicity_b5_UE.xlsx,2,0,12,3,1,11,red,red,blue,blue,blue,blue,c,UE,blue,5b6eba1aaf4af50001357228,female,46,2020-03-24_17h55.57.313,monotonicicty_v2,3.2.4,Win32,60,,,,,,,,,,,,,,,,,,,,,,,,,,,,,
,,,,,,,,,,,,,,,"[-0.5,0]","[0.5,0]","[0.3,0]","[-0.1,0]","[-0.3,0]","[0.1,0]",m,1,0.717999935,1,0,8,4,1,7,monotonicity_b5_UE.xlsx,2,0,12,1,1,11,red,red,red,red,blue,blue,m,UE,blue,5b6eba1aaf4af50001357228,female,46,2020-03-24_17h55.57.313,monotonicicty_v2,3.2.4,Win32,60,,,,,,,,,,,,,,,,,,,,,,,,,,,,,
,,,,,,,,,,,,,,,"[0.3,0]","[0.1,0]","[-0.3,0]","[0.5,0]","[-0.1,0]","[-0.5,0]",m,1,1.002000093,1,0,8,4,1,7,monotonicity_b5_UE.xlsx,2,0,12,2,1,11,red,red,red,blue,blue,blue,m,UE,blue,5b6eba1aaf4af50001357228,female,46,2020-03-24_17h55.57.313,monotonicicty_v2,3.2.4,Win32,60,,,,,,,,,,,,,,,,,,,,,,,,,,,,,
,,,,,,,,,,,,,,,,,,,,,,,,1,0,8,4,1,7,monotonicity_b5_UE.xlsx,,,,,,,,,,,,,,,,5b6eba1aaf4af50001357228,female,46,2020-03-24_17h55.57.313,monotonicicty_v2,3.2.4,Win32,60,,,,,,,,,,,,,,,,,,,,,,,,,,,,,
,,,,,,,,,,,,,,,"[-0.3,0]","[0.3,0]","[0.5,0]","[-0.1,0]","[0.1,0]","[-0.5,0]",,,,,,,,,,,,,,,,,,,,,,,m,UE,,5b6eba1aaf4af50001357228,female,46,2020-03-24_17h55.57.313,monotonicicty_v2,3.2.4,Win32,60,,,,,,,,,space,58.8039999,space,5.975000143,m,1,2.115999937,2,0,12,2,1,11,0.09,0.09,0.09,0.19,0.19,0.19,black,
,,,,,,,,,,,,,,,"[0.5,0]","[0.3,0]","[-0.1,0]","[-0.5,0]","[0.1,0]","[-0.3,0]",,,,,,,,,,,,,,,,,,,,,,,c,UE,,5b6eba1aaf4af50001357228,female,46,2020-03-24_17h55.57.313,monotonicicty_v2,3.2.4,Win32,60,,,,,,,,,,,,,c,1,1.18599987,2,0,12,5,1,11,0.19,0.19,0.19,0.19,0.19,0.19,black,
,,,,,,,,,,,,,,,"[0.3,0]","[0.5,0]","[0.1,0]","[-0.5,0]","[-0.1,0]","[-0.3,0]",,,,,,,,,,,,,,,,,,,,,,,c,UE,,5b6eba1aaf4af50001357228,female,46,2020-03-24_17h55.57.313,monotonicicty_v2,3.2.4,Win32,60,,,,,,,,,,,,,c,1,1.394000053,2,0,12,4,1,11,0.09,0.19,0.19,0.19,0.19,0.19,black,
,,,,,,,,,,,,,,,"[0.1,0]","[-0.1,0]","[-0.3,0]","[0.5,0]","[-0.5,0]","[0.3,0]",,,,,,,,,,,,,,,,,,,,,,,m,UE,,5b6eba1aaf4af50001357228,female,46,2020-03-24_17h55.57.313,monotonicicty_v2,3.2.4,Win32,60,,,,,,,,,,,,,m,1,1.186000109,2,0,12,1,1,11,0.09,0.09,0.09,0.09,0.19,0.19,black,
,,,,,,,,,,,,,,,"[0.5,0]","[0.3,0]","[-0.1,0]","[-0.3,0]","[-0.5,0]","[0.1,0]",,,,,,,,,,,,,,,,,,,,,,,c,UE,,5b6eba1aaf4af50001357228,female,46,2020-03-24_17h55.57.313,monotonicicty_v2,3.2.4,Win32,60,,,,,,,,,,,,,c,1,1.268000126,2,0,12,3,1,11,0.09,0.09,0.19,0.19,0.19,0.19,black,
,,,,,,,,,,,,,,,"[0.1,0]","[0.3,0]","[-0.5,0]","[-0.3,0]","[-0.1,0]","[0.5,0]",,,,,,,,,,,,,,,,,,,,,,,m,UE,,5b6eba1aaf4af50001357228,female,46,2020-03-24_17h55.57.313,monotonicicty_v2,3.2.4,Win32,60,,,,,,,,,,,,,m,1,0.859999895,2,0,12,0,1,11,0.09,0.09,0.09,0.09,0.09,0.19,black,
,,,,,,,,,,,,,,,"[0.5,0]","[0.1,0]","[-0.5,0]","[0.3,0]","[-0.1,0]","[-0.3,0]",,,,,,,,,,,,,,,,,,,,,,,c,UE,,5b6eba1aaf4af50001357228,female,46,2020-03-24_17h55.57.313,monotonicicty_v2,3.2.4,Win32,60,,,,,,,,,,,,,c,1,0.707000017,2,0,12,5,1,11,0.19,0.19,0.19,0.19,0.19,0.19,black,
,,,,,,,,,,,,,,,"[-0.5,0]","[0.3,0]","[0.1,0]","[-0.1,0]","[-0.3,0]","[0.5,0]",,,,,,,,,,,,,,,,,,,,,,,m,UE,,5b6eba1aaf4af50001357228,female,46,2020-03-24_17h55.57.313,monotonicicty_v2,3.2.4,Win32,60,,,,,,,,,,,,,m,1,1.007999897,2,0,12,1,1,11,0.09,0.09,0.09,0.09,0.19,0.19,black,
,,,,,,,,,,,,,,,"[0.5,0]","[-0.3,0]","[0.1,0]","[-0.1,0]","[0.3,0]","[-0.5,0]",,,,,,,,,,,,,,,,,,,,,,,m,UE,,5b6eba1aaf4af50001357228,female,46,2020-03-24_17h55.57.313,monotonicicty_v2,3.2.4,Win32,60,,,,,,,,,,,,,m,1,2.751000166,2,0,12,2,1,11,0.09,0.09,0.09,0.19,0.19,0.19,black,
,,,,,,,,,,,,,,,"[-0.1,0]","[-0.3,0]","[0.1,0]","[0.3,0]","[-0.5,0]","[0.5,0]",,,,,,,,,,,,,,,,,,,,,,,c,UE,,5b6eba1aaf4af50001357228,female,46,2020-03-24_17h55.57.313,monotonicicty_v2,3.2.4,Win32,60,,,,,,,,,,,,,c,1,0.708000183,2,0,12,4,1,11,0.09,0.19,0.19,0.19,0.19,0.19,black,
,,,,,,,,,,,,,,,"[-0.1,0]","[0.3,0]","[-0.5,0]","[-0.3,0]","[0.5,0]","[0.1,0]",,,,,,,,,,,,,,,,,,,,,,,m,UE,,5b6eba1aaf4af50001357228,female,46,2020-03-24_17h55.57.313,monotonicicty_v2,3.2.4,Win32,60,,,,,,,,,,,,,m,1,1.106999874,2,0,12,0,1,11,0.09,0.09,0.09,0.09,0.09,0.19,black,
,,,,,,,,,,,,,,,"[-0.3,0]","[0.1,0]","[0.3,0]","[-0.5,0]","[-0.1,0]","[0.5,0]",,,,,,,,,,,,,,,,,,,,,,,c,UE,,5b6eba1aaf4af50001357228,female,46,2020-03-24_17h55.57.313,monotonicicty_v2,3.2.4,Win32,60,,,,,,,,,,,,,c,1,0.902999878,2,0,12,3,1,11,0.09,0.09,0.19,0.19,0.19,0.19,black,
,,,,,,,,,,,,,,,,,,,,,,,,,,,,,,,,,,,,,,,,,,,,,,5b6eba1aaf4af50001357228,female,46,2020-03-24_17h55.57.313,monotonicicty_v2,3.2.4,Win32,60,,,,,,,,,,,,,,,,,,,,,,,,,,,,,most
