mouse_consent.x,mouse_consent.y,mouse_consent.leftButton,mouse_consent.midButton,mouse_consent.rightButton,mouse_consent.time,mouse_consent.clicked_name,key_resp_introduction.keys,key_resp_introduction.rt,key_resp_instructions.keys,key_resp_instructions.rt,example_resp.keys,example_resp.rt,example_resp_2.keys,example_resp_2.rt,pol1,pol2,pol3,pol4,pol5,pol6,key_resp_monotonicity.keys,key_resp_monotonicity.corr,key_resp_monotonicity.rt,condition.thisRepN,condition.thisTrialN,condition.thisN,condition.thisIndex,condition.ran,condition.order,condFile,trials.thisRepN,trials.thisTrialN,trials.thisN,trials.thisIndex,trials.ran,trials.order,obj1,obj2,obj3,obj4,obj5,obj6,corrAns,quantifier,target,Prolific_ID*,gender,age,date,expName,psychopyVersion,OS,frameRate,key_resp.keys,key_resp.rt,break_look.thisRepN,break_look.thisTrialN,break_look.thisN,break_look.thisIndex,break_look.ran,break_look.order,key_resp_instruction_test.keys,key_resp_instruction_test.rt,size_rep.keys,size_rep.rt,rep_test.keys,rep_test.corr,rep_test.rt,test_trials.thisRepN,test_trials.thisTrialN,test_trials.thisN,test_trials.thisIndex,test_trials.ran,test_trials.order,s1,s2,s3,s4,s5,s6,col,typedWord
0.368518519,-0.399074074,1,0,0,2.352999926,consent_button,space,2.162999868,space,10.38400006,space,6.399999857,space,5.684000015,"[-0.1,0]","[0.5,0]","[0.1,0]","[0.3,0]","[-0.5,0]","[-0.3,0]",c,0,8.194000006,1,0,8,2,1,7,monotonicity_b3_UE.xlsx,2,0,12,1,1,11,green,green,green,green,red,red,m,UE,red,5c81701127f8cb0016c93705,male,18,2020-03-24_17h55.27.342,monotonicicty_v2,3.2.4,Win32,60,,,,,,,,,,,,,,,,,,,,,,,,,,,,,
,,,,,,,,,,,,,,,"[0.3,0]","[-0.1,0]","[-0.3,0]","[0.5,0]","[-0.5,0]","[0.1,0]",c,1,3.068000078,1,0,8,2,1,7,monotonicity_b3_UE.xlsx,2,0,12,3,1,11,green,green,red,red,red,red,c,UE,red,5c81701127f8cb0016c93705,male,18,2020-03-24_17h55.27.342,monotonicicty_v2,3.2.4,Win32,60,,,,,,,,,,,,,,,,,,,,,,,,,,,,,
,,,,,,,,,,,,,,,"[0.3,0]","[-0.5,0]","[-0.1,0]","[0.1,0]","[0.5,0]","[-0.3,0]",c,1,1.700999975,1,0,8,2,1,7,monotonicity_b3_UE.xlsx,2,0,12,4,1,11,green,red,red,red,red,red,c,UE,red,5c81701127f8cb0016c93705,male,18,2020-03-24_17h55.27.342,monotonicicty_v2,3.2.4,Win32,60,,,,,,,,,,,,,,,,,,,,,,,,,,,,,
,,,,,,,,,,,,,,,"[-0.5,0]","[-0.3,0]","[0.3,0]","[-0.1,0]","[0.5,0]","[0.1,0]",m,1,1.01699996,1,0,8,2,1,7,monotonicity_b3_UE.xlsx,2,0,12,0,1,11,green,green,green,green,green,red,m,UE,red,5c81701127f8cb0016c93705,male,18,2020-03-24_17h55.27.342,monotonicicty_v2,3.2.4,Win32,60,,,,,,,,,,,,,,,,,,,,,,,,,,,,,
,,,,,,,,,,,,,,,"[0.1,0]","[0.3,0]","[-0.5,0]","[0.5,0]","[-0.3,0]","[-0.1,0]",c,0,1.002000093,1,0,8,2,1,7,monotonicity_b3_UE.xlsx,2,0,12,2,1,11,green,green,green,red,red,red,m,UE,red,5c81701127f8cb0016c93705,male,18,2020-03-24_17h55.27.342,monotonicicty_v2,3.2.4,Win32,60,,,,,,,,,,,,,,,,,,,,,,,,,,,,,
,,,,,,,,,,,,,,,"[0.5,0]","[0.3,0]","[-0.1,0]","[-0.3,0]","[-0.5,0]","[0.1,0]",c,1,1.299999952,1,0,8,2,1,7,monotonicity_b3_UE.xlsx,2,0,12,5,1,11,red,red,red,red,red,red,c,UE,red,5c81701127f8cb0016c93705,male,18,2020-03-24_17h55.27.342,monotonicicty_v2,3.2.4,Win32,60,,,,,,,,,,,,,,,,,,,,,,,,,,,,,
,,,,,,,,,,,,,,,"[-0.5,0]","[-0.3,0]","[-0.1,0]","[0.5,0]","[0.1,0]","[0.3,0]",c,1,0.899999857,1,0,8,2,1,7,monotonicity_b3_UE.xlsx,2,0,12,3,1,11,green,green,red,red,red,red,c,UE,red,5c81701127f8cb0016c93705,male,18,2020-03-24_17h55.27.342,monotonicicty_v2,3.2.4,Win32,60,,,,,,,,,,,,,,,,,,,,,,,,,,,,,
,,,,,,,,,,,,,,,"[0.5,0]","[0.3,0]","[-0.3,0]","[-0.1,0]","[0.1,0]","[-0.5,0]",m,1,1.118000031,1,0,8,2,1,7,monotonicity_b3_UE.xlsx,2,0,12,1,1,11,green,green,green,green,red,red,m,UE,red,5c81701127f8cb0016c93705,male,18,2020-03-24_17h55.27.342,monotonicicty_v2,3.2.4,Win32,60,,,,,,,,,,,,,,,,,,,,,,,,,,,,,
,,,,,,,,,,,,,,,"[-0.1,0]","[0.5,0]","[-0.3,0]","[0.1,0]","[-0.5,0]","[0.3,0]",c,1,0.78399992,1,0,8,2,1,7,monotonicity_b3_UE.xlsx,2,0,12,5,1,11,red,red,red,red,red,red,c,UE,red,5c81701127f8cb0016c93705,male,18,2020-03-24_17h55.27.342,monotonicicty_v2,3.2.4,Win32,60,,,,,,,,,,,,,,,,,,,,,,,,,,,,,
,,,,,,,,,,,,,,,"[0.1,0]","[-0.1,0]","[0.3,0]","[0.5,0]","[-0.5,0]","[-0.3,0]",c,1,0.93900013,1,0,8,2,1,7,monotonicity_b3_UE.xlsx,2,0,12,4,1,11,green,red,red,red,red,red,c,UE,red,5c81701127f8cb0016c93705,male,18,2020-03-24_17h55.27.342,monotonicicty_v2,3.2.4,Win32,60,,,,,,,,,,,,,,,,,,,,,,,,,,,,,
,,,,,,,,,,,,,,,"[0.1,0]","[-0.3,0]","[0.3,0]","[0.5,0]","[-0.5,0]","[-0.1,0]",m,1,3.034000158,1,0,8,2,1,7,monotonicity_b3_UE.xlsx,2,0,12,2,1,11,green,green,green,red,red,red,m,UE,red,5c81701127f8cb0016c93705,male,18,2020-03-24_17h55.27.342,monotonicicty_v2,3.2.4,Win32,60,,,,,,,,,,,,,,,,,,,,,,,,,,,,,
,,,,,,,,,,,,,,,"[0.5,0]","[0.1,0]","[-0.3,0]","[-0.5,0]","[-0.1,0]","[0.3,0]",m,1,0.950000048,1,0,8,2,1,7,monotonicity_b3_UE.xlsx,2,0,12,0,1,11,green,green,green,green,green,red,m,UE,red,5c81701127f8cb0016c93705,male,18,2020-03-24_17h55.27.342,monotonicicty_v2,3.2.4,Win32,60,,,,,,,,,,,,,,,,,,,,,,,,,,,,,
,,,,,,,,,,,,,,,,,,,,,,,,1,0,8,2,1,7,monotonicity_b3_UE.xlsx,,,,,,,,,,,,,,,,5c81701127f8cb0016c93705,male,18,2020-03-24_17h55.27.342,monotonicicty_v2,3.2.4,Win32,60,space,2.084000111,1,0,1,0,1,0,,,,,,,,,,,,,,,,,,,,,
,,,,,,,,,,,,,,,,,,,,,,,,1,0,8,2,1,7,monotonicity_b3_UE.xlsx,,,,,,,,,,,,,,,,5c81701127f8cb0016c93705,male,18,2020-03-24_17h55.27.342,monotonicicty_v2,3.2.4,Win32,60,,,,,,,,,,,,,,,,,,,,,,,,,,,,,
,,,,,,,,,,,,,,,"[-0.1,0]","[0.5,0]","[0.3,0]","[-0.3,0]","[0.1,0]","[-0.5,0]",c,1,2.401000023,1,0,8,6,1,7,monotonicity_b7_UE.xlsx,2,0,12,3,1,11,red,red,green,green,green,green,c,UE,green,5c81701127f8cb0016c93705,male,18,2020-03-24_17h55.27.342,monotonicicty_v2,3.2.4,Win32,60,,,,,,,,,,,,,,,,,,,,,,,,,,,,,
,,,,,,,,,,,,,,,"[0.3,0]","[0.5,0]","[-0.3,0]","[-0.1,0]","[-0.5,0]","[0.1,0]",c,1,0.549999952,1,0,8,6,1,7,monotonicity_b7_UE.xlsx,2,0,12,4,1,11,red,green,green,green,green,green,c,UE,green,5c81701127f8cb0016c93705,male,18,2020-03-24_17h55.27.342,monotonicicty_v2,3.2.4,Win32,60,,,,,,,,,,,,,,,,,,,,,,,,,,,,,
,,,,,,,,,,,,,,,"[0.1,0]","[-0.3,0]","[-0.5,0]","[0.5,0]","[-0.1,0]","[0.3,0]",m,1,0.700000048,1,0,8,6,1,7,monotonicity_b7_UE.xlsx,2,0,12,1,1,11,red,red,red,red,green,green,m,UE,green,5c81701127f8cb0016c93705,male,18,2020-03-24_17h55.27.342,monotonicicty_v2,3.2.4,Win32,60,,,,,,,,,,,,,,,,,,,,,,,,,,,,,
,,,,,,,,,,,,,,,"[-0.5,0]","[-0.1,0]","[0.5,0]","[0.1,0]","[0.3,0]","[-0.3,0]",c,1,0.51699996,1,0,8,6,1,7,monotonicity_b7_UE.xlsx,2,0,12,5,1,11,green,green,green,green,green,green,c,UE,green,5c81701127f8cb0016c93705,male,18,2020-03-24_17h55.27.342,monotonicicty_v2,3.2.4,Win32,60,,,,,,,,,,,,,,,,,,,,,,,,,,,,,
,,,,,,,,,,,,,,,"[0.1,0]","[-0.1,0]","[0.5,0]","[-0.5,0]","[-0.3,0]","[0.3,0]",m,1,0.651000023,1,0,8,6,1,7,monotonicity_b7_UE.xlsx,2,0,12,0,1,11,red,red,red,red,red,green,m,UE,green,5c81701127f8cb0016c93705,male,18,2020-03-24_17h55.27.342,monotonicicty_v2,3.2.4,Win32,60,,,,,,,,,,,,,,,,,,,,,,,,,,,,,
,,,,,,,,,,,,,,,"[0.5,0]","[0.1,0]","[-0.5,0]","[0.3,0]","[-0.1,0]","[-0.3,0]",m,1,1.816999912,1,0,8,6,1,7,monotonicity_b7_UE.xlsx,2,0,12,2,1,11,red,red,red,green,green,green,m,UE,green,5c81701127f8cb0016c93705,male,18,2020-03-24_17h55.27.342,monotonicicty_v2,3.2.4,Win32,60,,,,,,,,,,,,,,,,,,,,,,,,,,,,,
,,,,,,,,,,,,,,,"[-0.1,0]","[-0.5,0]","[0.3,0]","[-0.3,0]","[0.5,0]","[0.1,0]",c,1,0.832999945,1,0,8,6,1,7,monotonicity_b7_UE.xlsx,2,0,12,3,1,11,red,red,green,green,green,green,c,UE,green,5c81701127f8cb0016c93705,male,18,2020-03-24_17h55.27.342,monotonicicty_v2,3.2.4,Win32,60,,,,,,,,,,,,,,,,,,,,,,,,,,,,,
,,,,,,,,,,,,,,,"[0.3,0]","[0.5,0]","[-0.1,0]","[-0.3,0]","[-0.5,0]","[0.1,0]",c,1,0.684000015,1,0,8,6,1,7,monotonicity_b7_UE.xlsx,2,0,12,4,1,11,red,green,green,green,green,green,c,UE,green,5c81701127f8cb0016c93705,male,18,2020-03-24_17h55.27.342,monotonicicty_v2,3.2.4,Win32,60,,,,,,,,,,,,,,,,,,,,,,,,,,,,,
,,,,,,,,,,,,,,,"[0.3,0]","[0.5,0]","[0.1,0]","[-0.3,0]","[-0.1,0]","[-0.5,0]",c,0,0.551000118,1,0,8,6,1,7,monotonicity_b7_UE.xlsx,2,0,12,2,1,11,red,red,red,green,green,green,m,UE,green,5c81701127f8cb0016c93705,male,18,2020-03-24_17h55.27.342,monotonicicty_v2,3.2.4,Win32,60,,,,,,,,,,,,,,,,,,,,,,,,,,,,,
,,,,,,,,,,,,,,,"[-0.1,0]","[-0.3,0]","[0.3,0]","[0.1,0]","[-0.5,0]","[0.5,0]",m,1,0.967999935,1,0,8,6,1,7,monotonicity_b7_UE.xlsx,2,0,12,0,1,11,red,red,red,red,red,green,m,UE,green,5c81701127f8cb0016c93705,male,18,2020-03-24_17h55.27.342,monotonicicty_v2,3.2.4,Win32,60,,,,,,,,,,,,,,,,,,,,,,,,,,,,,
,,,,,,,,,,,,,,,"[-0.1,0]","[0.1,0]","[-0.5,0]","[0.5,0]","[0.3,0]","[-0.3,0]",c,1,0.667000055,1,0,8,6,1,7,monotonicity_b7_UE.xlsx,2,0,12,5,1,11,green,green,green,green,green,green,c,UE,green,5c81701127f8cb0016c93705,male,18,2020-03-24_17h55.27.342,monotonicicty_v2,3.2.4,Win32,60,,,,,,,,,,,,,,,,,,,,,,,,,,,,,
,,,,,,,,,,,,,,,"[-0.3,0]","[-0.1,0]","[0.3,0]","[0.5,0]","[-0.5,0]","[0.1,0]",m,1,0.917000055,1,0,8,6,1,7,monotonicity_b7_UE.xlsx,2,0,12,1,1,11,red,red,red,red,green,green,m,UE,green,5c81701127f8cb0016c93705,male,18,2020-03-24_17h55.27.342,monotonicicty_v2,3.2.4,Win32,60,,,,,,,,,,,,,,,,,,,,,,,,,,,,,
,,,,,,,,,,,,,,,,,,,,,,,,1,0,8,6,1,7,monotonicity_b7_UE.xlsx,,,,,,,,,,,,,,,,5c81701127f8cb0016c93705,male,18,2020-03-24_17h55.27.342,monotonicicty_v2,3.2.4,Win32,60,space,1.417999983,1,0,1,0,1,0,,,,,,,,,,,,,,,,,,,,,
,,,,,,,,,,,,,,,,,,,,,,,,1,0,8,6,1,7,monotonicity_b7_UE.xlsx,,,,,,,,,,,,,,,,5c81701127f8cb0016c93705,male,18,2020-03-24_17h55.27.342,monotonicicty_v2,3.2.4,Win32,60,,,,,,,,,,,,,,,,,,,,,,,,,,,,,
,,,,,,,,,,,,,,,"[0.1,0]","[0.5,0]","[-0.1,0]","[0.3,0]","[-0.3,0]","[-0.5,0]",c,1,1.562000036,1,0,8,3,1,7,monotonicity_b4_UE.xlsx,2,0,12,3,1,11,blue,blue,yellow,yellow,yellow,yellow,c,UE,yellow,5c81701127f8cb0016c93705,male,18,2020-03-24_17h55.27.342,monotonicicty_v2,3.2.4,Win32,60,,,,,,,,,,,,,,,,,,,,,,,,,,,,,
,,,,,,,,,,,,,,,"[0.5,0]","[-0.1,0]","[-0.3,0]","[-0.5,0]","[0.1,0]","[0.3,0]",m,1,0.917000055,1,0,8,3,1,7,monotonicity_b4_UE.xlsx,2,0,12,2,1,11,blue,blue,blue,yellow,yellow,yellow,m,UE,yellow,5c81701127f8cb0016c93705,male,18,2020-03-24_17h55.27.342,monotonicicty_v2,3.2.4,Win32,60,,,,,,,,,,,,,,,,,,,,,,,,,,,,,
,,,,,,,,,,,,,,,"[0.3,0]","[-0.1,0]","[0.1,0]","[-0.5,0]","[-0.3,0]","[0.5,0]",c,1,0.582999945,1,0,8,3,1,7,monotonicity_b4_UE.xlsx,2,0,12,4,1,11,blue,yellow,yellow,yellow,yellow,yellow,c,UE,yellow,5c81701127f8cb0016c93705,male,18,2020-03-24_17h55.27.342,monotonicicty_v2,3.2.4,Win32,60,,,,,,,,,,,,,,,,,,,,,,,,,,,,,
,,,,,,,,,,,,,,,"[0.3,0]","[0.5,0]","[-0.3,0]","[0.1,0]","[-0.1,0]","[-0.5,0]",c,1,0.434000015,1,0,8,3,1,7,monotonicity_b4_UE.xlsx,2,0,12,5,1,11,yellow,yellow,yellow,yellow,yellow,yellow,c,UE,yellow,5c81701127f8cb0016c93705,male,18,2020-03-24_17h55.27.342,monotonicicty_v2,3.2.4,Win32,60,,,,,,,,,,,,,,,,,,,,,,,,,,,,,
,,,,,,,,,,,,,,,"[-0.1,0]","[0.5,0]","[-0.5,0]","[-0.3,0]","[0.3,0]","[0.1,0]",m,1,0.666999817,1,0,8,3,1,7,monotonicity_b4_UE.xlsx,2,0,12,0,1,11,blue,blue,blue,blue,blue,yellow,m,UE,yellow,5c81701127f8cb0016c93705,male,18,2020-03-24_17h55.27.342,monotonicicty_v2,3.2.4,Win32,60,,,,,,,,,,,,,,,,,,,,,,,,,,,,,
,,,,,,,,,,,,,,,"[0.5,0]","[-0.1,0]","[-0.3,0]","[-0.5,0]","[0.1,0]","[0.3,0]",m,1,0.667000055,1,0,8,3,1,7,monotonicity_b4_UE.xlsx,2,0,12,1,1,11,blue,blue,blue,blue,yellow,yellow,m,UE,yellow,5c81701127f8cb0016c93705,male,18,2020-03-24_17h55.27.342,monotonicicty_v2,3.2.4,Win32,60,,,,,,,,,,,,,,,,,,,,,,,,,,,,,
,,,,,,,,,,,,,,,"[0.5,0]","[0.3,0]","[-0.3,0]","[-0.5,0]","[-0.1,0]","[0.1,0]",m,1,1.334000111,1,0,8,3,1,7,monotonicity_b4_UE.xlsx,2,0,12,0,1,11,blue,blue,blue,blue,blue,yellow,m,UE,yellow,5c81701127f8cb0016c93705,male,18,2020-03-24_17h55.27.342,monotonicicty_v2,3.2.4,Win32,60,,,,,,,,,,,,,,,,,,,,,,,,,,,,,
,,,,,,,,,,,,,,,"[0.1,0]","[-0.1,0]","[0.3,0]","[-0.5,0]","[-0.3,0]","[0.5,0]",m,1,1.051000118,1,0,8,3,1,7,monotonicity_b4_UE.xlsx,2,0,12,2,1,11,blue,blue,blue,yellow,yellow,yellow,m,UE,yellow,5c81701127f8cb0016c93705,male,18,2020-03-24_17h55.27.342,monotonicicty_v2,3.2.4,Win32,60,,,,,,,,,,,,,,,,,,,,,,,,,,,,,
,,,,,,,,,,,,,,,"[-0.1,0]","[-0.5,0]","[-0.3,0]","[0.1,0]","[0.5,0]","[0.3,0]",m,1,1.184999943,1,0,8,3,1,7,monotonicity_b4_UE.xlsx,2,0,12,1,1,11,blue,blue,blue,blue,yellow,yellow,m,UE,yellow,5c81701127f8cb0016c93705,male,18,2020-03-24_17h55.27.342,monotonicicty_v2,3.2.4,Win32,60,,,,,,,,,,,,,,,,,,,,,,,,,,,,,
,,,,,,,,,,,,,,,"[-0.5,0]","[0.5,0]","[-0.3,0]","[-0.1,0]","[0.3,0]","[0.1,0]",c,1,0.700999975,1,0,8,3,1,7,monotonicity_b4_UE.xlsx,2,0,12,3,1,11,blue,blue,yellow,yellow,yellow,yellow,c,UE,yellow,5c81701127f8cb0016c93705,male,18,2020-03-24_17h55.27.342,monotonicicty_v2,3.2.4,Win32,60,,,,,,,,,,,,,,,,,,,,,,,,,,,,,
,,,,,,,,,,,,,,,"[0.1,0]","[-0.5,0]","[0.5,0]","[-0.1,0]","[-0.3,0]","[0.3,0]",c,1,0.682999849,1,0,8,3,1,7,monotonicity_b4_UE.xlsx,2,0,12,5,1,11,yellow,yellow,yellow,yellow,yellow,yellow,c,UE,yellow,5c81701127f8cb0016c93705,male,18,2020-03-24_17h55.27.342,monotonicicty_v2,3.2.4,Win32,60,,,,,,,,,,,,,,,,,,,,,,,,,,,,,
,,,,,,,,,,,,,,,"[-0.5,0]","[0.5,0]","[-0.3,0]","[0.1,0]","[-0.1,0]","[0.3,0]",c,1,0.518000126,1,0,8,3,1,7,monotonicity_b4_UE.xlsx,2,0,12,4,1,11,blue,yellow,yellow,yellow,yellow,yellow,c,UE,yellow,5c81701127f8cb0016c93705,male,18,2020-03-24_17h55.27.342,monotonicicty_v2,3.2.4,Win32,60,,,,,,,,,,,,,,,,,,,,,,,,,,,,,
,,,,,,,,,,,,,,,,,,,,,,,,1,0,8,3,1,7,monotonicity_b4_UE.xlsx,,,,,,,,,,,,,,,,5c81701127f8cb0016c93705,male,18,2020-03-24_17h55.27.342,monotonicicty_v2,3.2.4,Win32,60,space,1.30099988,1,0,1,0,1,0,,,,,,,,,,,,,,,,,,,,,
,,,,,,,,,,,,,,,,,,,,,,,,1,0,8,3,1,7,monotonicity_b4_UE.xlsx,,,,,,,,,,,,,,,,5c81701127f8cb0016c93705,male,18,2020-03-24_17h55.27.342,monotonicicty_v2,3.2.4,Win32,60,,,,,,,,,,,,,,,,,,,,,,,,,,,,,
,,,,,,,,,,,,,,,"[-0.1,0]","[-0.5,0]","[-0.3,0]","[0.1,0]","[0.5,0]","[0.3,0]",m,1,2.180000067,1,0,8,1,1,7,monotonicity_b2_UE.xlsx,2,0,12,0,1,11,green,green,green,green,green,yellow,m,UE,yellow,5c81701127f8cb0016c93705,male,18,2020-03-24_17h55.27.342,monotonicicty_v2,3.2.4,Win32,60,,,,,,,,,,,,,,,,,,,,,,,,,,,,,
,,,,,,,,,,,,,,,"[-0.3,0]","[0.1,0]","[0.3,0]","[-0.5,0]","[-0.1,0]","[0.5,0]",c,1,0.865999937,1,0,8,1,1,7,monotonicity_b2_UE.xlsx,2,0,12,4,1,11,green,yellow,yellow,yellow,yellow,yellow,c,UE,yellow,5c81701127f8cb0016c93705,male,18,2020-03-24_17h55.27.342,monotonicicty_v2,3.2.4,Win32,60,,,,,,,,,,,,,,,,,,,,,,,,,,,,,
,,,,,,,,,,,,,,,"[0.3,0]","[-0.1,0]","[-0.5,0]","[0.5,0]","[-0.3,0]","[0.1,0]",c,1,0.434000015,1,0,8,1,1,7,monotonicity_b2_UE.xlsx,2,0,12,5,1,11,yellow,yellow,yellow,yellow,yellow,yellow,c,UE,yellow,5c81701127f8cb0016c93705,male,18,2020-03-24_17h55.27.342,monotonicicty_v2,3.2.4,Win32,60,,,,,,,,,,,,,,,,,,,,,,,,,,,,,
,,,,,,,,,,,,,,,"[-0.1,0]","[0.5,0]","[-0.5,0]","[0.1,0]","[-0.3,0]","[0.3,0]",c,0,0.384000063,1,0,8,1,1,7,monotonicity_b2_UE.xlsx,2,0,12,2,1,11,green,green,green,yellow,yellow,yellow,m,UE,yellow,5c81701127f8cb0016c93705,male,18,2020-03-24_17h55.27.342,monotonicicty_v2,3.2.4,Win32,60,,,,,,,,,,,,,,,,,,,,,,,,,,,,,
,,,,,,,,,,,,,,,"[-0.5,0]","[0.1,0]","[-0.3,0]","[-0.1,0]","[0.5,0]","[0.3,0]",c,1,0.834000111,1,0,8,1,1,7,monotonicity_b2_UE.xlsx,2,0,12,3,1,11,green,green,yellow,yellow,yellow,yellow,c,UE,yellow,5c81701127f8cb0016c93705,male,18,2020-03-24_17h55.27.342,monotonicicty_v2,3.2.4,Win32,60,,,,,,,,,,,,,,,,,,,,,,,,,,,,,
,,,,,,,,,,,,,,,"[0.1,0]","[-0.1,0]","[-0.3,0]","[0.5,0]","[-0.5,0]","[0.3,0]",m,1,0.717000008,1,0,8,1,1,7,monotonicity_b2_UE.xlsx,2,0,12,1,1,11,green,green,green,green,yellow,yellow,m,UE,yellow,5c81701127f8cb0016c93705,male,18,2020-03-24_17h55.27.342,monotonicicty_v2,3.2.4,Win32,60,,,,,,,,,,,,,,,,,,,,,,,,,,,,,
,,,,,,,,,,,,,,,"[0.5,0]","[-0.3,0]","[-0.5,0]","[-0.1,0]","[0.1,0]","[0.3,0]",c,1,1.782999992,1,0,8,1,1,7,monotonicity_b2_UE.xlsx,2,0,12,4,1,11,green,yellow,yellow,yellow,yellow,yellow,c,UE,yellow,5c81701127f8cb0016c93705,male,18,2020-03-24_17h55.27.342,monotonicicty_v2,3.2.4,Win32,60,,,,,,,,,,,,,,,,,,,,,,,,,,,,,
,,,,,,,,,,,,,,,"[-0.3,0]","[0.5,0]","[0.3,0]","[-0.5,0]","[0.1,0]","[-0.1,0]",c,1,2.167000055,1,0,8,1,1,7,monotonicity_b2_UE.xlsx,2,0,12,3,1,11,green,green,yellow,yellow,yellow,yellow,c,UE,yellow,5c81701127f8cb0016c93705,male,18,2020-03-24_17h55.27.342,monotonicicty_v2,3.2.4,Win32,60,,,,,,,,,,,,,,,,,,,,,,,,,,,,,
,,,,,,,,,,,,,,,"[-0.1,0]","[-0.5,0]","[0.3,0]","[-0.3,0]","[0.5,0]","[0.1,0]",c,1,1.133999825,1,0,8,1,1,7,monotonicity_b2_UE.xlsx,2,0,12,5,1,11,yellow,yellow,yellow,yellow,yellow,yellow,c,UE,yellow,5c81701127f8cb0016c93705,male,18,2020-03-24_17h55.27.342,monotonicicty_v2,3.2.4,Win32,60,,,,,,,,,,,,,,,,,,,,,,,,,,,,,
,,,,,,,,,,,,,,,"[0.5,0]","[0.1,0]","[0.3,0]","[-0.5,0]","[-0.3,0]","[-0.1,0]",c,0,0.884000063,1,0,8,1,1,7,monotonicity_b2_UE.xlsx,2,0,12,0,1,11,green,green,green,green,green,yellow,m,UE,yellow,5c81701127f8cb0016c93705,male,18,2020-03-24_17h55.27.342,monotonicicty_v2,3.2.4,Win32,60,,,,,,,,,,,,,,,,,,,,,,,,,,,,,
,,,,,,,,,,,,,,,"[-0.5,0]","[-0.1,0]","[0.3,0]","[-0.3,0]","[0.1,0]","[0.5,0]",m,1,1.25,1,0,8,1,1,7,monotonicity_b2_UE.xlsx,2,0,12,1,1,11,green,green,green,green,yellow,yellow,m,UE,yellow,5c81701127f8cb0016c93705,male,18,2020-03-24_17h55.27.342,monotonicicty_v2,3.2.4,Win32,60,,,,,,,,,,,,,,,,,,,,,,,,,,,,,
,,,,,,,,,,,,,,,"[-0.1,0]","[-0.5,0]","[0.3,0]","[0.1,0]","[-0.3,0]","[0.5,0]",m,1,0.784000158,1,0,8,1,1,7,monotonicity_b2_UE.xlsx,2,0,12,2,1,11,green,green,green,yellow,yellow,yellow,m,UE,yellow,5c81701127f8cb0016c93705,male,18,2020-03-24_17h55.27.342,monotonicicty_v2,3.2.4,Win32,60,,,,,,,,,,,,,,,,,,,,,,,,,,,,,
,,,,,,,,,,,,,,,,,,,,,,,,1,0,8,1,1,7,monotonicity_b2_UE.xlsx,,,,,,,,,,,,,,,,5c81701127f8cb0016c93705,male,18,2020-03-24_17h55.27.342,monotonicicty_v2,3.2.4,Win32,60,space,1.88499999,1,0,1,0,1,0,,,,,,,,,,,,,,,,,,,,,
,,,,,,,,,,,,,,,,,,,,,,,,1,0,8,1,1,7,monotonicity_b2_UE.xlsx,,,,,,,,,,,,,,,,5c81701127f8cb0016c93705,male,18,2020-03-24_17h55.27.342,monotonicicty_v2,3.2.4,Win32,60,,,,,,,,,,,,,,,,,,,,,,,,,,,,,
,,,,,,,,,,,,,,,"[0.1,0]","[-0.5,0]","[0.5,0]","[0.3,0]","[-0.3,0]","[-0.1,0]",m,1,1.71600008,1,0,8,4,1,7,monotonicity_b5_UE.xlsx,2,0,12,2,1,11,red,red,red,blue,blue,blue,m,UE,blue,5c81701127f8cb0016c93705,male,18,2020-03-24_17h55.27.342,monotonicicty_v2,3.2.4,Win32,60,,,,,,,,,,,,,,,,,,,,,,,,,,,,,
,,,,,,,,,,,,,,,"[-0.5,0]","[0.1,0]","[0.5,0]","[-0.1,0]","[0.3,0]","[-0.3,0]",c,1,0.503000021,1,0,8,4,1,7,monotonicity_b5_UE.xlsx,2,0,12,5,1,11,blue,blue,blue,blue,blue,blue,c,UE,blue,5c81701127f8cb0016c93705,male,18,2020-03-24_17h55.27.342,monotonicicty_v2,3.2.4,Win32,60,,,,,,,,,,,,,,,,,,,,,,,,,,,,,
,,,,,,,,,,,,,,,"[-0.3,0]","[0.1,0]","[0.5,0]","[-0.1,0]","[-0.5,0]","[0.3,0]",c,1,0.518000126,1,0,8,4,1,7,monotonicity_b5_UE.xlsx,2,0,12,3,1,11,red,red,blue,blue,blue,blue,c,UE,blue,5c81701127f8cb0016c93705,male,18,2020-03-24_17h55.27.342,monotonicicty_v2,3.2.4,Win32,60,,,,,,,,,,,,,,,,,,,,,,,,,,,,,
,,,,,,,,,,,,,,,"[0.1,0]","[0.3,0]","[0.5,0]","[-0.5,0]","[-0.3,0]","[-0.1,0]",c,1,0.416999817,1,0,8,4,1,7,monotonicity_b5_UE.xlsx,2,0,12,4,1,11,red,blue,blue,blue,blue,blue,c,UE,blue,5c81701127f8cb0016c93705,male,18,2020-03-24_17h55.27.342,monotonicicty_v2,3.2.4,Win32,60,,,,,,,,,,,,,,,,,,,,,,,,,,,,,
,,,,,,,,,,,,,,,"[-0.1,0]","[0.3,0]","[-0.5,0]","[0.1,0]","[0.5,0]","[-0.3,0]",m,1,0.667000055,1,0,8,4,1,7,monotonicity_b5_UE.xlsx,2,0,12,0,1,11,red,red,red,red,red,blue,m,UE,blue,5c81701127f8cb0016c93705,male,18,2020-03-24_17h55.27.342,monotonicicty_v2,3.2.4,Win32,60,,,,,,,,,,,,,,,,,,,,,,,,,,,,,
,,,,,,,,,,,,,,,"[0.5,0]","[0.3,0]","[-0.1,0]","[-0.3,0]","[-0.5,0]","[0.1,0]",m,1,0.75,1,0,8,4,1,7,monotonicity_b5_UE.xlsx,2,0,12,1,1,11,red,red,red,red,blue,blue,m,UE,blue,5c81701127f8cb0016c93705,male,18,2020-03-24_17h55.27.342,monotonicicty_v2,3.2.4,Win32,60,,,,,,,,,,,,,,,,,,,,,,,,,,,,,
,,,,,,,,,,,,,,,"[0.3,0]","[-0.5,0]","[0.5,0]","[0.1,0]","[-0.3,0]","[-0.1,0]",c,1,0.617000103,1,0,8,4,1,7,monotonicity_b5_UE.xlsx,2,0,12,3,1,11,red,red,blue,blue,blue,blue,c,UE,blue,5c81701127f8cb0016c93705,male,18,2020-03-24_17h55.27.342,monotonicicty_v2,3.2.4,Win32,60,,,,,,,,,,,,,,,,,,,,,,,,,,,,,
,,,,,,,,,,,,,,,"[-0.3,0]","[0.1,0]","[0.5,0]","[-0.1,0]","[-0.5,0]","[0.3,0]",m,1,0.700000048,1,0,8,4,1,7,monotonicity_b5_UE.xlsx,2,0,12,1,1,11,red,red,red,red,blue,blue,m,UE,blue,5c81701127f8cb0016c93705,male,18,2020-03-24_17h55.27.342,monotonicicty_v2,3.2.4,Win32,60,,,,,,,,,,,,,,,,,,,,,,,,,,,,,
,,,,,,,,,,,,,,,"[-0.1,0]","[0.3,0]","[-0.3,0]","[-0.5,0]","[0.1,0]","[0.5,0]",m,1,0.967999935,1,0,8,4,1,7,monotonicity_b5_UE.xlsx,2,0,12,2,1,11,red,red,red,blue,blue,blue,m,UE,blue,5c81701127f8cb0016c93705,male,18,2020-03-24_17h55.27.342,monotonicicty_v2,3.2.4,Win32,60,,,,,,,,,,,,,,,,,,,,,,,,,,,,,
,,,,,,,,,,,,,,,"[0.1,0]","[0.3,0]","[-0.5,0]","[-0.1,0]","[0.5,0]","[-0.3,0]",m,1,1.100999832,1,0,8,4,1,7,monotonicity_b5_UE.xlsx,2,0,12,0,1,11,red,red,red,red,red,blue,m,UE,blue,5c81701127f8cb0016c93705,male,18,2020-03-24_17h55.27.342,monotonicicty_v2,3.2.4,Win32,60,,,,,,,,,,,,,,,,,,,,,,,,,,,,,
,,,,,,,,,,,,,,,"[-0.1,0]","[0.1,0]","[-0.5,0]","[0.5,0]","[0.3,0]","[-0.3,0]",c,1,0.851000071,1,0,8,4,1,7,monotonicity_b5_UE.xlsx,2,0,12,4,1,11,red,blue,blue,blue,blue,blue,c,UE,blue,5c81701127f8cb0016c93705,male,18,2020-03-24_17h55.27.342,monotonicicty_v2,3.2.4,Win32,60,,,,,,,,,,,,,,,,,,,,,,,,,,,,,
,,,,,,,,,,,,,,,"[0.1,0]","[-0.5,0]","[-0.1,0]","[0.3,0]","[0.5,0]","[-0.3,0]",c,1,1.350000143,1,0,8,4,1,7,monotonicity_b5_UE.xlsx,2,0,12,5,1,11,blue,blue,blue,blue,blue,blue,c,UE,blue,5c81701127f8cb0016c93705,male,18,2020-03-24_17h55.27.342,monotonicicty_v2,3.2.4,Win32,60,,,,,,,,,,,,,,,,,,,,,,,,,,,,,
,,,,,,,,,,,,,,,,,,,,,,,,1,0,8,4,1,7,monotonicity_b5_UE.xlsx,,,,,,,,,,,,,,,,5c81701127f8cb0016c93705,male,18,2020-03-24_17h55.27.342,monotonicicty_v2,3.2.4,Win32,60,space,0.901000023,1,0,1,0,1,0,,,,,,,,,,,,,,,,,,,,,
,,,,,,,,,,,,,,,,,,,,,,,,1,0,8,4,1,7,monotonicity_b5_UE.xlsx,,,,,,,,,,,,,,,,5c81701127f8cb0016c93705,male,18,2020-03-24_17h55.27.342,monotonicicty_v2,3.2.4,Win32,60,,,,,,,,,,,,,,,,,,,,,,,,,,,,,
,,,,,,,,,,,,,,,"[0.1,0]","[0.5,0]","[-0.3,0]","[-0.1,0]","[-0.5,0]","[0.3,0]",m,1,1.051000118,1,0,8,0,1,7,monotonicity_b1_UE.xlsx,2,0,12,1,1,11,blue,blue,blue,blue,red,red,m,UE,red,5c81701127f8cb0016c93705,male,18,2020-03-24_17h55.27.342,monotonicicty_v2,3.2.4,Win32,60,,,,,,,,,,,,,,,,,,,,,,,,,,,,,
,,,,,,,,,,,,,,,"[-0.5,0]","[-0.1,0]","[-0.3,0]","[0.1,0]","[0.3,0]","[0.5,0]",m,1,0.584000111,1,0,8,0,1,7,monotonicity_b1_UE.xlsx,2,0,12,0,1,11,blue,blue,blue,blue,blue,red,m,UE,red,5c81701127f8cb0016c93705,male,18,2020-03-24_17h55.27.342,monotonicicty_v2,3.2.4,Win32,60,,,,,,,,,,,,,,,,,,,,,,,,,,,,,
,,,,,,,,,,,,,,,"[-0.3,0]","[-0.5,0]","[0.5,0]","[0.1,0]","[-0.1,0]","[0.3,0]",m,1,1.634000063,1,0,8,0,1,7,monotonicity_b1_UE.xlsx,2,0,12,2,1,11,blue,blue,blue,red,red,red,m,UE,red,5c81701127f8cb0016c93705,male,18,2020-03-24_17h55.27.342,monotonicicty_v2,3.2.4,Win32,60,,,,,,,,,,,,,,,,,,,,,,,,,,,,,
,,,,,,,,,,,,,,,"[0.5,0]","[-0.5,0]","[-0.3,0]","[0.1,0]","[0.3,0]","[-0.1,0]",c,1,0.967000008,1,0,8,0,1,7,monotonicity_b1_UE.xlsx,2,0,12,3,1,11,blue,blue,red,red,red,red,c,UE,red,5c81701127f8cb0016c93705,male,18,2020-03-24_17h55.27.342,monotonicicty_v2,3.2.4,Win32,60,,,,,,,,,,,,,,,,,,,,,,,,,,,,,
,,,,,,,,,,,,,,,"[0.5,0]","[-0.5,0]","[0.3,0]","[-0.3,0]","[-0.1,0]","[0.1,0]",c,1,0.583999872,1,0,8,0,1,7,monotonicity_b1_UE.xlsx,2,0,12,5,1,11,red,red,red,red,red,red,c,UE,red,5c81701127f8cb0016c93705,male,18,2020-03-24_17h55.27.342,monotonicicty_v2,3.2.4,Win32,60,,,,,,,,,,,,,,,,,,,,,,,,,,,,,
,,,,,,,,,,,,,,,"[-0.5,0]","[-0.3,0]","[-0.1,0]","[0.3,0]","[0.1,0]","[0.5,0]",c,1,0.434000015,1,0,8,0,1,7,monotonicity_b1_UE.xlsx,2,0,12,4,1,11,blue,red,red,red,red,red,c,UE,red,5c81701127f8cb0016c93705,male,18,2020-03-24_17h55.27.342,monotonicicty_v2,3.2.4,Win32,60,,,,,,,,,,,,,,,,,,,,,,,,,,,,,
,,,,,,,,,,,,,,,"[0.3,0]","[0.1,0]","[-0.3,0]","[-0.1,0]","[-0.5,0]","[0.5,0]",c,1,0.75,1,0,8,0,1,7,monotonicity_b1_UE.xlsx,2,0,12,5,1,11,red,red,red,red,red,red,c,UE,red,5c81701127f8cb0016c93705,male,18,2020-03-24_17h55.27.342,monotonicicty_v2,3.2.4,Win32,60,,,,,,,,,,,,,,,,,,,,,,,,,,,,,
,,,,,,,,,,,,,,,"[-0.3,0]","[-0.1,0]","[-0.5,0]","[0.5,0]","[0.3,0]","[0.1,0]",c,1,0.983999968,1,0,8,0,1,7,monotonicity_b1_UE.xlsx,2,0,12,3,1,11,blue,blue,red,red,red,red,c,UE,red,5c81701127f8cb0016c93705,male,18,2020-03-24_17h55.27.342,monotonicicty_v2,3.2.4,Win32,60,,,,,,,,,,,,,,,,,,,,,,,,,,,,,
,,,,,,,,,,,,,,,"[-0.1,0]","[-0.5,0]","[-0.3,0]","[0.5,0]","[0.1,0]","[0.3,0]",m,1,0.76699996,1,0,8,0,1,7,monotonicity_b1_UE.xlsx,2,0,12,1,1,11,blue,blue,blue,blue,red,red,m,UE,red,5c81701127f8cb0016c93705,male,18,2020-03-24_17h55.27.342,monotonicicty_v2,3.2.4,Win32,60,,,,,,,,,,,,,,,,,,,,,,,,,,,,,
,,,,,,,,,,,,,,,"[-0.5,0]","[-0.1,0]","[0.5,0]","[0.1,0]","[-0.3,0]","[0.3,0]",c,1,0.584000111,1,0,8,0,1,7,monotonicity_b1_UE.xlsx,2,0,12,4,1,11,blue,red,red,red,red,red,c,UE,red,5c81701127f8cb0016c93705,male,18,2020-03-24_17h55.27.342,monotonicicty_v2,3.2.4,Win32,60,,,,,,,,,,,,,,,,,,,,,,,,,,,,,
,,,,,,,,,,,,,,,"[0.3,0]","[-0.5,0]","[0.1,0]","[-0.3,0]","[-0.1,0]","[0.5,0]",m,1,0.867000103,1,0,8,0,1,7,monotonicity_b1_UE.xlsx,2,0,12,0,1,11,blue,blue,blue,blue,blue,red,m,UE,red,5c81701127f8cb0016c93705,male,18,2020-03-24_17h55.27.342,monotonicicty_v2,3.2.4,Win32,60,,,,,,,,,,,,,,,,,,,,,,,,,,,,,
,,,,,,,,,,,,,,,"[-0.3,0]","[0.1,0]","[0.3,0]","[-0.1,0]","[0.5,0]","[-0.5,0]",m,1,0.883999825,1,0,8,0,1,7,monotonicity_b1_UE.xlsx,2,0,12,2,1,11,blue,blue,blue,red,red,red,m,UE,red,5c81701127f8cb0016c93705,male,18,2020-03-24_17h55.27.342,monotonicicty_v2,3.2.4,Win32,60,,,,,,,,,,,,,,,,,,,,,,,,,,,,,
,,,,,,,,,,,,,,,,,,,,,,,,1,0,8,0,1,7,monotonicity_b1_UE.xlsx,,,,,,,,,,,,,,,,5c81701127f8cb0016c93705,male,18,2020-03-24_17h55.27.342,monotonicicty_v2,3.2.4,Win32,60,space,0.884000063,1,0,1,0,1,0,,,,,,,,,,,,,,,,,,,,,
,,,,,,,,,,,,,,,,,,,,,,,,1,0,8,0,1,7,monotonicity_b1_UE.xlsx,,,,,,,,,,,,,,,,5c81701127f8cb0016c93705,male,18,2020-03-24_17h55.27.342,monotonicicty_v2,3.2.4,Win32,60,,,,,,,,,,,,,,,,,,,,,,,,,,,,,
,,,,,,,,,,,,,,,"[0.1,0]","[-0.3,0]","[0.5,0]","[-0.5,0]","[0.3,0]","[-0.1,0]",c,1,1.000999928,1,0,8,5,1,7,monotonicity_b6_UE.xlsx,2,0,12,4,1,11,yellow,green,green,green,green,green,c,UE,green,5c81701127f8cb0016c93705,male,18,2020-03-24_17h55.27.342,monotonicicty_v2,3.2.4,Win32,60,,,,,,,,,,,,,,,,,,,,,,,,,,,,,
,,,,,,,,,,,,,,,"[-0.3,0]","[0.3,0]","[0.5,0]","[-0.1,0]","[-0.5,0]","[0.1,0]",m,1,0.667999983,1,0,8,5,1,7,monotonicity_b6_UE.xlsx,2,0,12,0,1,11,yellow,yellow,yellow,yellow,yellow,green,m,UE,green,5c81701127f8cb0016c93705,male,18,2020-03-24_17h55.27.342,monotonicicty_v2,3.2.4,Win32,60,,,,,,,,,,,,,,,,,,,,,,,,,,,,,
,,,,,,,,,,,,,,,"[-0.1,0]","[0.5,0]","[0.3,0]","[0.1,0]","[-0.3,0]","[-0.5,0]",c,1,0.750999928,1,0,8,5,1,7,monotonicity_b6_UE.xlsx,2,0,12,3,1,11,yellow,yellow,green,green,green,green,c,UE,green,5c81701127f8cb0016c93705,male,18,2020-03-24_17h55.27.342,monotonicicty_v2,3.2.4,Win32,60,,,,,,,,,,,,,,,,,,,,,,,,,,,,,
,,,,,,,,,,,,,,,"[-0.1,0]","[0.3,0]","[-0.3,0]","[0.5,0]","[0.1,0]","[-0.5,0]",m,1,0.532999992,1,0,8,5,1,7,monotonicity_b6_UE.xlsx,2,0,12,1,1,11,yellow,yellow,yellow,yellow,green,green,m,UE,green,5c81701127f8cb0016c93705,male,18,2020-03-24_17h55.27.342,monotonicicty_v2,3.2.4,Win32,60,,,,,,,,,,,,,,,,,,,,,,,,,,,,,
,,,,,,,,,,,,,,,"[-0.5,0]","[0.1,0]","[0.3,0]","[-0.3,0]","[-0.1,0]","[0.5,0]",m,1,0.733999968,1,0,8,5,1,7,monotonicity_b6_UE.xlsx,2,0,12,2,1,11,yellow,yellow,yellow,green,green,green,m,UE,green,5c81701127f8cb0016c93705,male,18,2020-03-24_17h55.27.342,monotonicicty_v2,3.2.4,Win32,60,,,,,,,,,,,,,,,,,,,,,,,,,,,,,
,,,,,,,,,,,,,,,"[-0.5,0]","[0.3,0]","[-0.1,0]","[-0.3,0]","[0.5,0]","[0.1,0]",c,1,0.567000151,1,0,8,5,1,7,monotonicity_b6_UE.xlsx,2,0,12,5,1,11,green,green,green,green,green,green,c,UE,green,5c81701127f8cb0016c93705,male,18,2020-03-24_17h55.27.342,monotonicicty_v2,3.2.4,Win32,60,,,,,,,,,,,,,,,,,,,,,,,,,,,,,
,,,,,,,,,,,,,,,"[0.1,0]","[-0.5,0]","[-0.1,0]","[0.5,0]","[0.3,0]","[-0.3,0]",m,1,1.31799984,1,0,8,5,1,7,monotonicity_b6_UE.xlsx,2,0,12,1,1,11,yellow,yellow,yellow,yellow,green,green,m,UE,green,5c81701127f8cb0016c93705,male,18,2020-03-24_17h55.27.342,monotonicicty_v2,3.2.4,Win32,60,,,,,,,,,,,,,,,,,,,,,,,,,,,,,
,,,,,,,,,,,,,,,"[-0.1,0]","[0.5,0]","[-0.3,0]","[-0.5,0]","[0.3,0]","[0.1,0]",c,1,0.51699996,1,0,8,5,1,7,monotonicity_b6_UE.xlsx,2,0,12,5,1,11,green,green,green,green,green,green,c,UE,green,5c81701127f8cb0016c93705,male,18,2020-03-24_17h55.27.342,monotonicicty_v2,3.2.4,Win32,60,,,,,,,,,,,,,,,,,,,,,,,,,,,,,
,,,,,,,,,,,,,,,"[-0.3,0]","[-0.1,0]","[0.3,0]","[0.1,0]","[-0.5,0]","[0.5,0]",m,1,0.784000158,1,0,8,5,1,7,monotonicity_b6_UE.xlsx,2,0,12,0,1,11,yellow,yellow,yellow,yellow,yellow,green,m,UE,green,5c81701127f8cb0016c93705,male,18,2020-03-24_17h55.27.342,monotonicicty_v2,3.2.4,Win32,60,,,,,,,,,,,,,,,,,,,,,,,,,,,,,
,,,,,,,,,,,,,,,"[-0.1,0]","[0.5,0]","[0.3,0]","[-0.3,0]","[0.1,0]","[-0.5,0]",c,1,6.299999952,1,0,8,5,1,7,monotonicity_b6_UE.xlsx,2,0,12,3,1,11,yellow,yellow,green,green,green,green,c,UE,green,5c81701127f8cb0016c93705,male,18,2020-03-24_17h55.27.342,monotonicicty_v2,3.2.4,Win32,60,,,,,,,,,,,,,,,,,,,,,,,,,,,,,
,,,,,,,,,,,,,,,"[0.3,0]","[0.5,0]","[-0.5,0]","[-0.3,0]","[0.1,0]","[-0.1,0]",c,1,0.819000006,1,0,8,5,1,7,monotonicity_b6_UE.xlsx,2,0,12,4,1,11,yellow,green,green,green,green,green,c,UE,green,5c81701127f8cb0016c93705,male,18,2020-03-24_17h55.27.342,monotonicicty_v2,3.2.4,Win32,60,,,,,,,,,,,,,,,,,,,,,,,,,,,,,
,,,,,,,,,,,,,,,"[0.1,0]","[-0.5,0]","[-0.1,0]","[-0.3,0]","[0.5,0]","[0.3,0]",m,1,1.650999784,1,0,8,5,1,7,monotonicity_b6_UE.xlsx,2,0,12,2,1,11,yellow,yellow,yellow,green,green,green,m,UE,green,5c81701127f8cb0016c93705,male,18,2020-03-24_17h55.27.342,monotonicicty_v2,3.2.4,Win32,60,,,,,,,,,,,,,,,,,,,,,,,,,,,,,
,,,,,,,,,,,,,,,,,,,,,,,,1,0,8,5,1,7,monotonicity_b6_UE.xlsx,,,,,,,,,,,,,,,,5c81701127f8cb0016c93705,male,18,2020-03-24_17h55.27.342,monotonicicty_v2,3.2.4,Win32,60,space,1.351000071,1,0,1,0,1,0,,,,,,,,,,,,,,,,,,,,,
,,,,,,,,,,,,,,,,,,,,,,,,1,0,8,5,1,7,monotonicity_b6_UE.xlsx,,,,,,,,,,,,,,,,5c81701127f8cb0016c93705,male,18,2020-03-24_17h55.27.342,monotonicicty_v2,3.2.4,Win32,60,,,,,,,,,,,,,,,,,,,,,,,,,,,,,
,,,,,,,,,,,,,,,"[0.1,0]","[-0.1,0]","[-0.3,0]","[0.3,0]","[-0.5,0]","[0.5,0]",c,1,1.167000055,1,0,8,7,1,7,monotonicity_b8_UE.xlsx,2,0,12,3,1,11,yellow,yellow,blue,blue,blue,blue,c,UE,blue,5c81701127f8cb0016c93705,male,18,2020-03-24_17h55.27.342,monotonicicty_v2,3.2.4,Win32,60,,,,,,,,,,,,,,,,,,,,,,,,,,,,,
,,,,,,,,,,,,,,,"[0.5,0]","[-0.5,0]","[0.1,0]","[-0.3,0]","[0.3,0]","[-0.1,0]",m,1,0.699999809,1,0,8,7,1,7,monotonicity_b8_UE.xlsx,2,0,12,1,1,11,yellow,yellow,yellow,yellow,blue,blue,m,UE,blue,5c81701127f8cb0016c93705,male,18,2020-03-24_17h55.27.342,monotonicicty_v2,3.2.4,Win32,60,,,,,,,,,,,,,,,,,,,,,,,,,,,,,
,,,,,,,,,,,,,,,"[0.3,0]","[0.1,0]","[0.5,0]","[-0.3,0]","[-0.1,0]","[-0.5,0]",c,1,0.733999968,1,0,8,7,1,7,monotonicity_b8_UE.xlsx,2,0,12,4,1,11,yellow,blue,blue,blue,blue,blue,c,UE,blue,5c81701127f8cb0016c93705,male,18,2020-03-24_17h55.27.342,monotonicicty_v2,3.2.4,Win32,60,,,,,,,,,,,,,,,,,,,,,,,,,,,,,
,,,,,,,,,,,,,,,"[-0.5,0]","[0.1,0]","[-0.1,0]","[0.5,0]","[-0.3,0]","[0.3,0]",m,1,2.78399992,1,0,8,7,1,7,monotonicity_b8_UE.xlsx,2,0,12,0,1,11,yellow,yellow,yellow,yellow,yellow,blue,m,UE,blue,5c81701127f8cb0016c93705,male,18,2020-03-24_17h55.27.342,monotonicicty_v2,3.2.4,Win32,60,,,,,,,,,,,,,,,,,,,,,,,,,,,,,
,,,,,,,,,,,,,,,"[-0.5,0]","[0.3,0]","[-0.1,0]","[-0.3,0]","[0.1,0]","[0.5,0]",c,1,0.401000023,1,0,8,7,1,7,monotonicity_b8_UE.xlsx,2,0,12,5,1,11,blue,blue,blue,blue,blue,blue,c,UE,blue,5c81701127f8cb0016c93705,male,18,2020-03-24_17h55.27.342,monotonicicty_v2,3.2.4,Win32,60,,,,,,,,,,,,,,,,,,,,,,,,,,,,,
,,,,,,,,,,,,,,,"[-0.1,0]","[0.3,0]","[-0.5,0]","[0.5,0]","[-0.3,0]","[0.1,0]",m,1,0.684000015,1,0,8,7,1,7,monotonicity_b8_UE.xlsx,2,0,12,2,1,11,yellow,yellow,yellow,blue,blue,blue,m,UE,blue,5c81701127f8cb0016c93705,male,18,2020-03-24_17h55.27.342,monotonicicty_v2,3.2.4,Win32,60,,,,,,,,,,,,,,,,,,,,,,,,,,,,,
,,,,,,,,,,,,,,,"[-0.3,0]","[0.3,0]","[0.5,0]","[-0.1,0]","[-0.5,0]","[0.1,0]",c,1,1.268000126,1,0,8,7,1,7,monotonicity_b8_UE.xlsx,2,0,12,3,1,11,yellow,yellow,blue,blue,blue,blue,c,UE,blue,5c81701127f8cb0016c93705,male,18,2020-03-24_17h55.27.342,monotonicicty_v2,3.2.4,Win32,60,,,,,,,,,,,,,,,,,,,,,,,,,,,,,
,,,,,,,,,,,,,,,"[0.3,0]","[0.5,0]","[-0.3,0]","[0.1,0]","[-0.5,0]","[-0.1,0]",m,1,0.833999872,1,0,8,7,1,7,monotonicity_b8_UE.xlsx,2,0,12,0,1,11,yellow,yellow,yellow,yellow,yellow,blue,m,UE,blue,5c81701127f8cb0016c93705,male,18,2020-03-24_17h55.27.342,monotonicicty_v2,3.2.4,Win32,60,,,,,,,,,,,,,,,,,,,,,,,,,,,,,
,,,,,,,,,,,,,,,"[-0.5,0]","[-0.1,0]","[0.5,0]","[0.3,0]","[0.1,0]","[-0.3,0]",m,1,1.532999992,1,0,8,7,1,7,monotonicity_b8_UE.xlsx,2,0,12,1,1,11,yellow,yellow,yellow,yellow,blue,blue,m,UE,blue,5c81701127f8cb0016c93705,male,18,2020-03-24_17h55.27.342,monotonicicty_v2,3.2.4,Win32,60,,,,,,,,,,,,,,,,,,,,,,,,,,,,,
,,,,,,,,,,,,,,,"[-0.3,0]","[0.5,0]","[-0.1,0]","[-0.5,0]","[0.3,0]","[0.1,0]",m,1,1.284000158,1,0,8,7,1,7,monotonicity_b8_UE.xlsx,2,0,12,2,1,11,yellow,yellow,yellow,blue,blue,blue,m,UE,blue,5c81701127f8cb0016c93705,male,18,2020-03-24_17h55.27.342,monotonicicty_v2,3.2.4,Win32,60,,,,,,,,,,,,,,,,,,,,,,,,,,,,,
,,,,,,,,,,,,,,,"[0.1,0]","[0.5,0]","[-0.1,0]","[-0.3,0]","[0.3,0]","[-0.5,0]",c,1,0.549999952,1,0,8,7,1,7,monotonicity_b8_UE.xlsx,2,0,12,5,1,11,blue,blue,blue,blue,blue,blue,c,UE,blue,5c81701127f8cb0016c93705,male,18,2020-03-24_17h55.27.342,monotonicicty_v2,3.2.4,Win32,60,,,,,,,,,,,,,,,,,,,,,,,,,,,,,
,,,,,,,,,,,,,,,"[-0.5,0]","[0.3,0]","[0.1,0]","[-0.3,0]","[0.5,0]","[-0.1,0]",c,1,0.799999952,1,0,8,7,1,7,monotonicity_b8_UE.xlsx,2,0,12,4,1,11,yellow,blue,blue,blue,blue,blue,c,UE,blue,5c81701127f8cb0016c93705,male,18,2020-03-24_17h55.27.342,monotonicicty_v2,3.2.4,Win32,60,,,,,,,,,,,,,,,,,,,,,,,,,,,,,
,,,,,,,,,,,,,,,,,,,,,,,,1,0,8,7,1,7,monotonicity_b8_UE.xlsx,,,,,,,,,,,,,,,,5c81701127f8cb0016c93705,male,18,2020-03-24_17h55.27.342,monotonicicty_v2,3.2.4,Win32,60,,,,,,,,,,,,,,,,,,,,,,,,,,,,,
,,,,,,,,,,,,,,,"[0.5,0]","[-0.5,0]","[0.1,0]","[-0.3,0]","[-0.1,0]","[0.3,0]",,,,,,,,,,,,,,,,,,,,,,,c,UE,,5c81701127f8cb0016c93705,male,18,2020-03-24_17h55.27.342,monotonicicty_v2,3.2.4,Win32,60,,,,,,,,,space,16.21700001,space,2.48300004,c,1,3.812999964,2,0,12,4,1,11,0.09,0.19,0.19,0.19,0.19,0.19,black,
,,,,,,,,,,,,,,,"[0.5,0]","[-0.1,0]","[-0.3,0]","[0.1,0]","[-0.5,0]","[0.3,0]",,,,,,,,,,,,,,,,,,,,,,,m,UE,,5c81701127f8cb0016c93705,male,18,2020-03-24_17h55.27.342,monotonicicty_v2,3.2.4,Win32,60,,,,,,,,,,,,,m,1,4.617000103,2,0,12,1,1,11,0.09,0.09,0.09,0.09,0.19,0.19,black,
,,,,,,,,,,,,,,,"[-0.5,0]","[0.1,0]","[0.5,0]","[-0.1,0]","[-0.3,0]","[0.3,0]",,,,,,,,,,,,,,,,,,,,,,,m,UE,,5c81701127f8cb0016c93705,male,18,2020-03-24_17h55.27.342,monotonicicty_v2,3.2.4,Win32,60,,,,,,,,,,,,,m,1,0.96600008,2,0,12,2,1,11,0.09,0.09,0.09,0.19,0.19,0.19,black,
,,,,,,,,,,,,,,,"[0.3,0]","[-0.1,0]","[-0.3,0]","[0.1,0]","[-0.5,0]","[0.5,0]",,,,,,,,,,,,,,,,,,,,,,,m,UE,,5c81701127f8cb0016c93705,male,18,2020-03-24_17h55.27.342,monotonicicty_v2,3.2.4,Win32,60,,,,,,,,,,,,,m,1,0.651000023,2,0,12,0,1,11,0.09,0.09,0.09,0.09,0.09,0.19,black,
,,,,,,,,,,,,,,,"[-0.5,0]","[0.5,0]","[0.3,0]","[-0.1,0]","[-0.3,0]","[0.1,0]",,,,,,,,,,,,,,,,,,,,,,,c,UE,,5c81701127f8cb0016c93705,male,18,2020-03-24_17h55.27.342,monotonicicty_v2,3.2.4,Win32,60,,,,,,,,,,,,,c,1,0.600999832,2,0,12,3,1,11,0.09,0.09,0.19,0.19,0.19,0.19,black,
,,,,,,,,,,,,,,,"[-0.5,0]","[0.3,0]","[-0.3,0]","[0.1,0]","[-0.1,0]","[0.5,0]",,,,,,,,,,,,,,,,,,,,,,,c,UE,,5c81701127f8cb0016c93705,male,18,2020-03-24_17h55.27.342,monotonicicty_v2,3.2.4,Win32,60,,,,,,,,,,,,,c,1,0.483999968,2,0,12,5,1,11,0.19,0.19,0.19,0.19,0.19,0.19,black,
,,,,,,,,,,,,,,,"[-0.1,0]","[-0.3,0]","[0.3,0]","[-0.5,0]","[0.5,0]","[0.1,0]",,,,,,,,,,,,,,,,,,,,,,,c,UE,,5c81701127f8cb0016c93705,male,18,2020-03-24_17h55.27.342,monotonicicty_v2,3.2.4,Win32,60,,,,,,,,,,,,,c,1,0.700999975,2,0,12,3,1,11,0.09,0.09,0.19,0.19,0.19,0.19,black,
,,,,,,,,,,,,,,,"[0.3,0]","[0.5,0]","[-0.5,0]","[0.1,0]","[-0.3,0]","[-0.1,0]",,,,,,,,,,,,,,,,,,,,,,,m,UE,,5c81701127f8cb0016c93705,male,18,2020-03-24_17h55.27.342,monotonicicty_v2,3.2.4,Win32,60,,,,,,,,,,,,,m,1,0.584000111,2,0,12,0,1,11,0.09,0.09,0.09,0.09,0.09,0.19,black,
,,,,,,,,,,,,,,,"[0.3,0]","[-0.1,0]","[-0.3,0]","[-0.5,0]","[0.1,0]","[0.5,0]",,,,,,,,,,,,,,,,,,,,,,,m,UE,,5c81701127f8cb0016c93705,male,18,2020-03-24_17h55.27.342,monotonicicty_v2,3.2.4,Win32,60,,,,,,,,,,,,,m,1,0.684000015,2,0,12,1,1,11,0.09,0.09,0.09,0.09,0.19,0.19,black,
,,,,,,,,,,,,,,,"[-0.5,0]","[0.3,0]","[-0.3,0]","[-0.1,0]","[0.1,0]","[0.5,0]",,,,,,,,,,,,,,,,,,,,,,,m,UE,,5c81701127f8cb0016c93705,male,18,2020-03-24_17h55.27.342,monotonicicty_v2,3.2.4,Win32,60,,,,,,,,,,,,,m,1,0.75,2,0,12,2,1,11,0.09,0.09,0.09,0.19,0.19,0.19,black,
,,,,,,,,,,,,,,,"[0.3,0]","[-0.3,0]","[-0.1,0]","[-0.5,0]","[0.1,0]","[0.5,0]",,,,,,,,,,,,,,,,,,,,,,,c,UE,,5c81701127f8cb0016c93705,male,18,2020-03-24_17h55.27.342,monotonicicty_v2,3.2.4,Win32,60,,,,,,,,,,,,,c,1,0.467000008,2,0,12,5,1,11,0.19,0.19,0.19,0.19,0.19,0.19,black,
,,,,,,,,,,,,,,,"[-0.5,0]","[-0.3,0]","[-0.1,0]","[0.1,0]","[0.5,0]","[0.3,0]",,,,,,,,,,,,,,,,,,,,,,,c,UE,,5c81701127f8cb0016c93705,male,18,2020-03-24_17h55.27.342,monotonicicty_v2,3.2.4,Win32,60,,,,,,,,,,,,,c,1,0.634000063,2,0,12,4,1,11,0.09,0.19,0.19,0.19,0.19,0.19,black,
,,,,,,,,,,,,,,,,,,,,,,,,,,,,,,,,,,,,,,,,,,,,,,5c81701127f8cb0016c93705,male,18,2020-03-24_17h55.27.342,monotonicicty_v2,3.2.4,Win32,60,,,,,,,,,,,,,,,,,,,,,,,,,,,,,more than half
