mouse_consent.x,mouse_consent.y,mouse_consent.leftButton,mouse_consent.midButton,mouse_consent.rightButton,mouse_consent.time,mouse_consent.clicked_name,key_resp_introduction.keys,key_resp_introduction.rt,key_resp_instructions.keys,key_resp_instructions.rt,example_resp.keys,example_resp.rt,example_resp_2.keys,example_resp_2.rt,pol1,pol2,pol3,pol4,pol5,pol6,key_resp_monotonicity.keys,key_resp_monotonicity.corr,key_resp_monotonicity.rt,condition.thisRepN,condition.thisTrialN,condition.thisN,condition.thisIndex,condition.ran,condition.order,condFile,trials.thisRepN,trials.thisTrialN,trials.thisN,trials.thisIndex,trials.ran,trials.order,obj1,obj2,obj3,obj4,obj5,obj6,corrAns,quantifier,target,Prolific_ID*,gender,age,date,expName,psychopyVersion,OS,frameRate,key_resp.keys,key_resp.rt,break_look.thisRepN,break_look.thisTrialN,break_look.thisN,break_look.thisIndex,break_look.ran,break_look.order,key_resp_instruction_test.keys,key_resp_instruction_test.rt,size_rep.keys,size_rep.rt,rep_test.keys,rep_test.corr,rep_test.rt,test_trials.thisRepN,test_trials.thisTrialN,test_trials.thisN,test_trials.thisIndex,test_trials.ran,test_trials.order,s1,s2,s3,s4,s5,s6,col,typedWord
0.422411203,-0.403680007,1,0,0,2.421000004,consent_button,space,6.152999878,space,101.349,space,41.23599982,space,9.385999918,"[-0.3,0]","[0.5,0]","[-0.5,0]","[0.1,0]","[0.3,0]","[-0.1,0]",c,0,5.98699975,1,0,8,2,1,7,monotonicity_b3_non.xlsx,2,0,12,5,1,11,red,red,red,red,red,red,m,non,red,5de5875d4b7cf9506d7a8566,female,22,2020-03-25_15h21.52.420,non-monotone_v1,3.2.4,Linux x86_64,60,,,,,,,,,,,,,,,,,,,,,,,,,,,,,
,,,,,,,,,,,,,,,"[-0.5,0]","[0.5,0]","[-0.3,0]","[0.1,0]","[0.3,0]","[-0.1,0]",c,1,3.165999889,1,0,8,2,1,7,monotonicity_b3_non.xlsx,2,0,12,2,1,11,green,green,green,red,red,red,c,non,red,5de5875d4b7cf9506d7a8566,female,22,2020-03-25_15h21.52.420,non-monotone_v1,3.2.4,Linux x86_64,60,,,,,,,,,,,,,,,,,,,,,,,,,,,,,
,,,,,,,,,,,,,,,"[0.3,0]","[-0.1,0]","[-0.5,0]","[-0.3,0]","[0.1,0]","[0.5,0]",c,0,5.573999882,1,0,8,2,1,7,monotonicity_b3_non.xlsx,2,0,12,0,1,11,green,green,green,green,green,red,m,non,red,5de5875d4b7cf9506d7a8566,female,22,2020-03-25_15h21.52.420,non-monotone_v1,3.2.4,Linux x86_64,60,,,,,,,,,,,,,,,,,,,,,,,,,,,,,
,,,,,,,,,,,,,,,"[-0.3,0]","[0.1,0]","[0.3,0]","[-0.1,0]","[0.5,0]","[-0.5,0]",c,1,1.635999918,1,0,8,2,1,7,monotonicity_b3_non.xlsx,2,0,12,1,1,11,green,green,green,green,red,red,c,non,red,5de5875d4b7cf9506d7a8566,female,22,2020-03-25_15h21.52.420,non-monotone_v1,3.2.4,Linux x86_64,60,,,,,,,,,,,,,,,,,,,,,,,,,,,,,
,,,,,,,,,,,,,,,"[0.5,0]","[0.3,0]","[-0.5,0]","[0.1,0]","[-0.3,0]","[-0.1,0]",m,1,0.808999777,1,0,8,2,1,7,monotonicity_b3_non.xlsx,2,0,12,4,1,11,green,red,red,red,red,red,m,non,red,5de5875d4b7cf9506d7a8566,female,22,2020-03-25_15h21.52.420,non-monotone_v1,3.2.4,Linux x86_64,60,,,,,,,,,,,,,,,,,,,,,,,,,,,,,
,,,,,,,,,,,,,,,"[-0.5,0]","[-0.3,0]","[0.1,0]","[0.5,0]","[-0.1,0]","[0.3,0]",c,1,0.378999949,1,0,8,2,1,7,monotonicity_b3_non.xlsx,2,0,12,3,1,11,green,green,red,red,red,red,c,non,red,5de5875d4b7cf9506d7a8566,female,22,2020-03-25_15h21.52.420,non-monotone_v1,3.2.4,Linux x86_64,60,,,,,,,,,,,,,,,,,,,,,,,,,,,,,
,,,,,,,,,,,,,,,"[0.1,0]","[0.5,0]","[-0.5,0]","[-0.3,0]","[-0.1,0]","[0.3,0]",m,0,0.376999855,1,0,8,2,1,7,monotonicity_b3_non.xlsx,2,0,12,3,1,11,green,green,red,red,red,red,c,non,red,5de5875d4b7cf9506d7a8566,female,22,2020-03-25_15h21.52.420,non-monotone_v1,3.2.4,Linux x86_64,60,,,,,,,,,,,,,,,,,,,,,,,,,,,,,
,,,,,,,,,,,,,,,"[0.1,0]","[0.5,0]","[-0.3,0]","[-0.5,0]","[-0.1,0]","[0.3,0]",m,1,4.242999792,1,0,8,2,1,7,monotonicity_b3_non.xlsx,2,0,12,4,1,11,green,red,red,red,red,red,m,non,red,5de5875d4b7cf9506d7a8566,female,22,2020-03-25_15h21.52.420,non-monotone_v1,3.2.4,Linux x86_64,60,,,,,,,,,,,,,,,,,,,,,,,,,,,,,
,,,,,,,,,,,,,,,"[0.5,0]","[-0.1,0]","[-0.3,0]","[0.1,0]","[-0.5,0]","[0.3,0]",c,0,1.988999844,1,0,8,2,1,7,monotonicity_b3_non.xlsx,2,0,12,0,1,11,green,green,green,green,green,red,m,non,red,5de5875d4b7cf9506d7a8566,female,22,2020-03-25_15h21.52.420,non-monotone_v1,3.2.4,Linux x86_64,60,,,,,,,,,,,,,,,,,,,,,,,,,,,,,
,,,,,,,,,,,,,,,"[-0.5,0]","[-0.1,0]","[0.3,0]","[-0.3,0]","[0.1,0]","[0.5,0]",c,0,1.907999992,1,0,8,2,1,7,monotonicity_b3_non.xlsx,2,0,12,5,1,11,red,red,red,red,red,red,m,non,red,5de5875d4b7cf9506d7a8566,female,22,2020-03-25_15h21.52.420,non-monotone_v1,3.2.4,Linux x86_64,60,,,,,,,,,,,,,,,,,,,,,,,,,,,,,
,,,,,,,,,,,,,,,"[0.3,0]","[0.1,0]","[-0.3,0]","[-0.1,0]","[0.5,0]","[-0.5,0]",c,1,0.948999882,1,0,8,2,1,7,monotonicity_b3_non.xlsx,2,0,12,1,1,11,green,green,green,green,red,red,c,non,red,5de5875d4b7cf9506d7a8566,female,22,2020-03-25_15h21.52.420,non-monotone_v1,3.2.4,Linux x86_64,60,,,,,,,,,,,,,,,,,,,,,,,,,,,,,
,,,,,,,,,,,,,,,"[-0.3,0]","[0.5,0]","[0.3,0]","[0.1,0]","[-0.5,0]","[-0.1,0]",c,1,2.111000061,1,0,8,2,1,7,monotonicity_b3_non.xlsx,2,0,12,2,1,11,green,green,green,red,red,red,c,non,red,5de5875d4b7cf9506d7a8566,female,22,2020-03-25_15h21.52.420,non-monotone_v1,3.2.4,Linux x86_64,60,,,,,,,,,,,,,,,,,,,,,,,,,,,,,
,,,,,,,,,,,,,,,,,,,,,,,,1,0,8,2,1,7,monotonicity_b3_non.xlsx,,,,,,,,,,,,,,,,5de5875d4b7cf9506d7a8566,female,22,2020-03-25_15h21.52.420,non-monotone_v1,3.2.4,Linux x86_64,60,space,2.22699976,1,0,1,0,1,0,,,,,,,,,,,,,,,,,,,,,
,,,,,,,,,,,,,,,,,,,,,,,,1,0,8,2,1,7,monotonicity_b3_non.xlsx,,,,,,,,,,,,,,,,5de5875d4b7cf9506d7a8566,female,22,2020-03-25_15h21.52.420,non-monotone_v1,3.2.4,Linux x86_64,60,,,,,,,,,,,,,,,,,,,,,,,,,,,,,
,,,,,,,,,,,,,,,"[-0.5,0]","[-0.1,0]","[0.3,0]","[-0.3,0]","[0.5,0]","[0.1,0]",m,1,1.161000013,1,0,8,0,1,7,monotonicity_b1_non.xlsx,2,0,12,4,1,11,blue,red,red,red,red,red,m,non,red,5de5875d4b7cf9506d7a8566,female,22,2020-03-25_15h21.52.420,non-monotone_v1,3.2.4,Linux x86_64,60,,,,,,,,,,,,,,,,,,,,,,,,,,,,,
,,,,,,,,,,,,,,,"[0.1,0]","[0.5,0]","[0.3,0]","[-0.1,0]","[-0.3,0]","[-0.5,0]",m,0,1.190999746,1,0,8,0,1,7,monotonicity_b1_non.xlsx,2,0,12,3,1,11,blue,blue,red,red,red,red,c,non,red,5de5875d4b7cf9506d7a8566,female,22,2020-03-25_15h21.52.420,non-monotone_v1,3.2.4,Linux x86_64,60,,,,,,,,,,,,,,,,,,,,,,,,,,,,,
,,,,,,,,,,,,,,,"[0.3,0]","[0.5,0]","[-0.3,0]","[-0.1,0]","[-0.5,0]","[0.1,0]",c,1,1.069000006,1,0,8,0,1,7,monotonicity_b1_non.xlsx,2,0,12,2,1,11,blue,blue,blue,red,red,red,c,non,red,5de5875d4b7cf9506d7a8566,female,22,2020-03-25_15h21.52.420,non-monotone_v1,3.2.4,Linux x86_64,60,,,,,,,,,,,,,,,,,,,,,,,,,,,,,
,,,,,,,,,,,,,,,"[0.3,0]","[-0.3,0]","[0.1,0]","[-0.5,0]","[-0.1,0]","[0.5,0]",m,1,2.075000048,1,0,8,0,1,7,monotonicity_b1_non.xlsx,2,0,12,5,1,11,red,red,red,red,red,red,m,non,red,5de5875d4b7cf9506d7a8566,female,22,2020-03-25_15h21.52.420,non-monotone_v1,3.2.4,Linux x86_64,60,,,,,,,,,,,,,,,,,,,,,,,,,,,,,
,,,,,,,,,,,,,,,"[-0.3,0]","[0.3,0]","[0.1,0]","[0.5,0]","[-0.5,0]","[-0.1,0]",c,0,1.655999899,1,0,8,0,1,7,monotonicity_b1_non.xlsx,2,0,12,0,1,11,blue,blue,blue,blue,blue,red,m,non,red,5de5875d4b7cf9506d7a8566,female,22,2020-03-25_15h21.52.420,non-monotone_v1,3.2.4,Linux x86_64,60,,,,,,,,,,,,,,,,,,,,,,,,,,,,,
,,,,,,,,,,,,,,,"[0.1,0]","[0.3,0]","[-0.3,0]","[-0.5,0]","[-0.1,0]","[0.5,0]",c,1,1.588999987,1,0,8,0,1,7,monotonicity_b1_non.xlsx,2,0,12,1,1,11,blue,blue,blue,blue,red,red,c,non,red,5de5875d4b7cf9506d7a8566,female,22,2020-03-25_15h21.52.420,non-monotone_v1,3.2.4,Linux x86_64,60,,,,,,,,,,,,,,,,,,,,,,,,,,,,,
,,,,,,,,,,,,,,,"[-0.3,0]","[-0.5,0]","[0.3,0]","[0.1,0]","[-0.1,0]","[0.5,0]",m,1,0.903999805,1,0,8,0,1,7,monotonicity_b1_non.xlsx,2,0,12,0,1,11,blue,blue,blue,blue,blue,red,m,non,red,5de5875d4b7cf9506d7a8566,female,22,2020-03-25_15h21.52.420,non-monotone_v1,3.2.4,Linux x86_64,60,,,,,,,,,,,,,,,,,,,,,,,,,,,,,
,,,,,,,,,,,,,,,"[-0.1,0]","[0.3,0]","[-0.3,0]","[0.5,0]","[0.1,0]","[-0.5,0]",c,1,1.139999866,1,0,8,0,1,7,monotonicity_b1_non.xlsx,2,0,12,1,1,11,blue,blue,blue,blue,red,red,c,non,red,5de5875d4b7cf9506d7a8566,female,22,2020-03-25_15h21.52.420,non-monotone_v1,3.2.4,Linux x86_64,60,,,,,,,,,,,,,,,,,,,,,,,,,,,,,
,,,,,,,,,,,,,,,"[-0.5,0]","[-0.1,0]","[0.3,0]","[-0.3,0]","[0.1,0]","[0.5,0]",m,0,1.428999901,1,0,8,0,1,7,monotonicity_b1_non.xlsx,2,0,12,3,1,11,blue,blue,red,red,red,red,c,non,red,5de5875d4b7cf9506d7a8566,female,22,2020-03-25_15h21.52.420,non-monotone_v1,3.2.4,Linux x86_64,60,,,,,,,,,,,,,,,,,,,,,,,,,,,,,
,,,,,,,,,,,,,,,"[-0.3,0]","[0.5,0]","[-0.5,0]","[0.3,0]","[0.1,0]","[-0.1,0]",c,1,1.770999908,1,0,8,0,1,7,monotonicity_b1_non.xlsx,2,0,12,2,1,11,blue,blue,blue,red,red,red,c,non,red,5de5875d4b7cf9506d7a8566,female,22,2020-03-25_15h21.52.420,non-monotone_v1,3.2.4,Linux x86_64,60,,,,,,,,,,,,,,,,,,,,,,,,,,,,,
,,,,,,,,,,,,,,,"[-0.1,0]","[0.1,0]","[-0.3,0]","[0.3,0]","[0.5,0]","[-0.5,0]",m,1,1.430999756,1,0,8,0,1,7,monotonicity_b1_non.xlsx,2,0,12,5,1,11,red,red,red,red,red,red,m,non,red,5de5875d4b7cf9506d7a8566,female,22,2020-03-25_15h21.52.420,non-monotone_v1,3.2.4,Linux x86_64,60,,,,,,,,,,,,,,,,,,,,,,,,,,,,,
,,,,,,,,,,,,,,,"[0.3,0]","[-0.3,0]","[-0.5,0]","[0.1,0]","[-0.1,0]","[0.5,0]",m,1,0.927000046,1,0,8,0,1,7,monotonicity_b1_non.xlsx,2,0,12,4,1,11,blue,red,red,red,red,red,m,non,red,5de5875d4b7cf9506d7a8566,female,22,2020-03-25_15h21.52.420,non-monotone_v1,3.2.4,Linux x86_64,60,,,,,,,,,,,,,,,,,,,,,,,,,,,,,
,,,,,,,,,,,,,,,,,,,,,,,,1,0,8,0,1,7,monotonicity_b1_non.xlsx,,,,,,,,,,,,,,,,5de5875d4b7cf9506d7a8566,female,22,2020-03-25_15h21.52.420,non-monotone_v1,3.2.4,Linux x86_64,60,space,1.714999914,1,0,1,0,1,0,,,,,,,,,,,,,,,,,,,,,
,,,,,,,,,,,,,,,,,,,,,,,,1,0,8,0,1,7,monotonicity_b1_non.xlsx,,,,,,,,,,,,,,,,5de5875d4b7cf9506d7a8566,female,22,2020-03-25_15h21.52.420,non-monotone_v1,3.2.4,Linux x86_64,60,,,,,,,,,,,,,,,,,,,,,,,,,,,,,
,,,,,,,,,,,,,,,"[-0.1,0]","[0.1,0]","[0.5,0]","[-0.3,0]","[-0.5,0]","[0.3,0]",m,0,2.728999853,1,0,8,3,1,7,monotonicity_b4_non.xlsx,2,0,12,1,1,11,blue,blue,blue,blue,yellow,yellow,c,non,yellow,5de5875d4b7cf9506d7a8566,female,22,2020-03-25_15h21.52.420,non-monotone_v1,3.2.4,Linux x86_64,60,,,,,,,,,,,,,,,,,,,,,,,,,,,,,
,,,,,,,,,,,,,,,"[0.3,0]","[0.5,0]","[-0.1,0]","[-0.3,0]","[0.1,0]","[-0.5,0]",m,1,1.443000078,1,0,8,3,1,7,monotonicity_b4_non.xlsx,2,0,12,4,1,11,blue,yellow,yellow,yellow,yellow,yellow,m,non,yellow,5de5875d4b7cf9506d7a8566,female,22,2020-03-25_15h21.52.420,non-monotone_v1,3.2.4,Linux x86_64,60,,,,,,,,,,,,,,,,,,,,,,,,,,,,,
,,,,,,,,,,,,,,,"[-0.3,0]","[0.1,0]","[0.5,0]","[-0.5,0]","[-0.1,0]","[0.3,0]",c,1,2.003999949,1,0,8,3,1,7,monotonicity_b4_non.xlsx,2,0,12,2,1,11,blue,blue,blue,yellow,yellow,yellow,c,non,yellow,5de5875d4b7cf9506d7a8566,female,22,2020-03-25_15h21.52.420,non-monotone_v1,3.2.4,Linux x86_64,60,,,,,,,,,,,,,,,,,,,,,,,,,,,,,
,,,,,,,,,,,,,,,"[0.5,0]","[-0.5,0]","[-0.1,0]","[-0.3,0]","[0.3,0]","[0.1,0]",c,0,1.362999916,1,0,8,3,1,7,monotonicity_b4_non.xlsx,2,0,12,0,1,11,blue,blue,blue,blue,blue,yellow,m,non,yellow,5de5875d4b7cf9506d7a8566,female,22,2020-03-25_15h21.52.420,non-monotone_v1,3.2.4,Linux x86_64,60,,,,,,,,,,,,,,,,,,,,,,,,,,,,,
,,,,,,,,,,,,,,,"[0.5,0]","[0.1,0]","[0.3,0]","[-0.1,0]","[-0.5,0]","[-0.3,0]",m,1,1.075999975,1,0,8,3,1,7,monotonicity_b4_non.xlsx,2,0,12,5,1,11,yellow,yellow,yellow,yellow,yellow,yellow,m,non,yellow,5de5875d4b7cf9506d7a8566,female,22,2020-03-25_15h21.52.420,non-monotone_v1,3.2.4,Linux x86_64,60,,,,,,,,,,,,,,,,,,,,,,,,,,,,,
,,,,,,,,,,,,,,,"[0.5,0]","[0.3,0]","[-0.3,0]","[-0.1,0]","[0.1,0]","[-0.5,0]",m,0,1.722999811,1,0,8,3,1,7,monotonicity_b4_non.xlsx,2,0,12,3,1,11,blue,blue,yellow,yellow,yellow,yellow,c,non,yellow,5de5875d4b7cf9506d7a8566,female,22,2020-03-25_15h21.52.420,non-monotone_v1,3.2.4,Linux x86_64,60,,,,,,,,,,,,,,,,,,,,,,,,,,,,,
,,,,,,,,,,,,,,,"[-0.1,0]","[0.1,0]","[-0.3,0]","[-0.5,0]","[0.5,0]","[0.3,0]",m,1,3.040999889,1,0,8,3,1,7,monotonicity_b4_non.xlsx,2,0,12,0,1,11,blue,blue,blue,blue,blue,yellow,m,non,yellow,5de5875d4b7cf9506d7a8566,female,22,2020-03-25_15h21.52.420,non-monotone_v1,3.2.4,Linux x86_64,60,,,,,,,,,,,,,,,,,,,,,,,,,,,,,
,,,,,,,,,,,,,,,"[-0.3,0]","[0.1,0]","[0.3,0]","[-0.1,0]","[-0.5,0]","[0.5,0]",c,1,2.467999935,1,0,8,3,1,7,monotonicity_b4_non.xlsx,2,0,12,3,1,11,blue,blue,yellow,yellow,yellow,yellow,c,non,yellow,5de5875d4b7cf9506d7a8566,female,22,2020-03-25_15h21.52.420,non-monotone_v1,3.2.4,Linux x86_64,60,,,,,,,,,,,,,,,,,,,,,,,,,,,,,
,,,,,,,,,,,,,,,"[-0.5,0]","[-0.3,0]","[0.3,0]","[-0.1,0]","[0.1,0]","[0.5,0]",c,0,3.723999739,1,0,8,3,1,7,monotonicity_b4_non.xlsx,2,0,12,5,1,11,yellow,yellow,yellow,yellow,yellow,yellow,m,non,yellow,5de5875d4b7cf9506d7a8566,female,22,2020-03-25_15h21.52.420,non-monotone_v1,3.2.4,Linux x86_64,60,,,,,,,,,,,,,,,,,,,,,,,,,,,,,
,,,,,,,,,,,,,,,"[-0.1,0]","[0.1,0]","[-0.5,0]","[-0.3,0]","[0.3,0]","[0.5,0]",m,0,2.525000095,1,0,8,3,1,7,monotonicity_b4_non.xlsx,2,0,12,1,1,11,blue,blue,blue,blue,yellow,yellow,c,non,yellow,5de5875d4b7cf9506d7a8566,female,22,2020-03-25_15h21.52.420,non-monotone_v1,3.2.4,Linux x86_64,60,,,,,,,,,,,,,,,,,,,,,,,,,,,,,
,,,,,,,,,,,,,,,"[0.3,0]","[0.1,0]","[-0.3,0]","[0.5,0]","[-0.1,0]","[-0.5,0]",c,1,4.006999969,1,0,8,3,1,7,monotonicity_b4_non.xlsx,2,0,12,2,1,11,blue,blue,blue,yellow,yellow,yellow,c,non,yellow,5de5875d4b7cf9506d7a8566,female,22,2020-03-25_15h21.52.420,non-monotone_v1,3.2.4,Linux x86_64,60,,,,,,,,,,,,,,,,,,,,,,,,,,,,,
,,,,,,,,,,,,,,,"[0.3,0]","[0.1,0]","[-0.5,0]","[-0.3,0]","[-0.1,0]","[0.5,0]",c,0,4.711999893,1,0,8,3,1,7,monotonicity_b4_non.xlsx,2,0,12,4,1,11,blue,yellow,yellow,yellow,yellow,yellow,m,non,yellow,5de5875d4b7cf9506d7a8566,female,22,2020-03-25_15h21.52.420,non-monotone_v1,3.2.4,Linux x86_64,60,,,,,,,,,,,,,,,,,,,,,,,,,,,,,
,,,,,,,,,,,,,,,,,,,,,,,,1,0,8,3,1,7,monotonicity_b4_non.xlsx,,,,,,,,,,,,,,,,5de5875d4b7cf9506d7a8566,female,22,2020-03-25_15h21.52.420,non-monotone_v1,3.2.4,Linux x86_64,60,space,1.184999943,1,0,1,0,1,0,,,,,,,,,,,,,,,,,,,,,
,,,,,,,,,,,,,,,,,,,,,,,,1,0,8,3,1,7,monotonicity_b4_non.xlsx,,,,,,,,,,,,,,,,5de5875d4b7cf9506d7a8566,female,22,2020-03-25_15h21.52.420,non-monotone_v1,3.2.4,Linux x86_64,60,,,,,,,,,,,,,,,,,,,,,,,,,,,,,
,,,,,,,,,,,,,,,"[-0.5,0]","[0.1,0]","[-0.3,0]","[0.5,0]","[-0.1,0]","[0.3,0]",m,1,5.663999796,1,0,8,5,1,7,monotonicity_b6_non.xlsx,2,0,12,0,1,11,yellow,yellow,yellow,yellow,yellow,green,m,non,green,5de5875d4b7cf9506d7a8566,female,22,2020-03-25_15h21.52.420,non-monotone_v1,3.2.4,Linux x86_64,60,,,,,,,,,,,,,,,,,,,,,,,,,,,,,
,,,,,,,,,,,,,,,"[0.1,0]","[-0.1,0]","[-0.5,0]","[0.3,0]","[0.5,0]","[-0.3,0]",m,0,0.906999826,1,0,8,5,1,7,monotonicity_b6_non.xlsx,2,0,12,1,1,11,yellow,yellow,yellow,yellow,green,green,c,non,green,5de5875d4b7cf9506d7a8566,female,22,2020-03-25_15h21.52.420,non-monotone_v1,3.2.4,Linux x86_64,60,,,,,,,,,,,,,,,,,,,,,,,,,,,,,
,,,,,,,,,,,,,,,"[0.3,0]","[0.1,0]","[-0.3,0]","[-0.5,0]","[0.5,0]","[-0.1,0]",m,1,1.987999916,1,0,8,5,1,7,monotonicity_b6_non.xlsx,2,0,12,5,1,11,green,green,green,green,green,green,m,non,green,5de5875d4b7cf9506d7a8566,female,22,2020-03-25_15h21.52.420,non-monotone_v1,3.2.4,Linux x86_64,60,,,,,,,,,,,,,,,,,,,,,,,,,,,,,
,,,,,,,,,,,,,,,"[-0.1,0]","[0.3,0]","[0.1,0]","[-0.3,0]","[0.5,0]","[-0.5,0]",c,1,3.318000078,1,0,8,5,1,7,monotonicity_b6_non.xlsx,2,0,12,2,1,11,yellow,yellow,yellow,green,green,green,c,non,green,5de5875d4b7cf9506d7a8566,female,22,2020-03-25_15h21.52.420,non-monotone_v1,3.2.4,Linux x86_64,60,,,,,,,,,,,,,,,,,,,,,,,,,,,,,
,,,,,,,,,,,,,,,"[0.3,0]","[-0.3,0]","[0.5,0]","[-0.5,0]","[0.1,0]","[-0.1,0]",m,0,3.285999775,1,0,8,5,1,7,monotonicity_b6_non.xlsx,2,0,12,3,1,11,yellow,yellow,green,green,green,green,c,non,green,5de5875d4b7cf9506d7a8566,female,22,2020-03-25_15h21.52.420,non-monotone_v1,3.2.4,Linux x86_64,60,,,,,,,,,,,,,,,,,,,,,,,,,,,,,
,,,,,,,,,,,,,,,"[0.3,0]","[0.5,0]","[-0.5,0]","[-0.3,0]","[0.1,0]","[-0.1,0]",c,0,1.207999706,1,0,8,5,1,7,monotonicity_b6_non.xlsx,2,0,12,4,1,11,yellow,green,green,green,green,green,m,non,green,5de5875d4b7cf9506d7a8566,female,22,2020-03-25_15h21.52.420,non-monotone_v1,3.2.4,Linux x86_64,60,,,,,,,,,,,,,,,,,,,,,,,,,,,,,
,,,,,,,,,,,,,,,"[0.5,0]","[0.1,0]","[-0.1,0]","[-0.5,0]","[0.3,0]","[-0.3,0]",m,0,0.753999949,1,0,8,5,1,7,monotonicity_b6_non.xlsx,2,0,12,1,1,11,yellow,yellow,yellow,yellow,green,green,c,non,green,5de5875d4b7cf9506d7a8566,female,22,2020-03-25_15h21.52.420,non-monotone_v1,3.2.4,Linux x86_64,60,,,,,,,,,,,,,,,,,,,,,,,,,,,,,
,,,,,,,,,,,,,,,"[0.3,0]","[0.1,0]","[-0.1,0]","[0.5,0]","[-0.5,0]","[-0.3,0]",m,1,1.611999989,1,0,8,5,1,7,monotonicity_b6_non.xlsx,2,0,12,4,1,11,yellow,green,green,green,green,green,m,non,green,5de5875d4b7cf9506d7a8566,female,22,2020-03-25_15h21.52.420,non-monotone_v1,3.2.4,Linux x86_64,60,,,,,,,,,,,,,,,,,,,,,,,,,,,,,
,,,,,,,,,,,,,,,"[-0.3,0]","[-0.5,0]","[0.5,0]","[-0.1,0]","[0.3,0]","[0.1,0]",c,1,1.607999802,1,0,8,5,1,7,monotonicity_b6_non.xlsx,2,0,12,3,1,11,yellow,yellow,green,green,green,green,c,non,green,5de5875d4b7cf9506d7a8566,female,22,2020-03-25_15h21.52.420,non-monotone_v1,3.2.4,Linux x86_64,60,,,,,,,,,,,,,,,,,,,,,,,,,,,,,
,,,,,,,,,,,,,,,"[-0.3,0]","[0.3,0]","[0.1,0]","[0.5,0]","[-0.1,0]","[-0.5,0]",m,1,2.289999962,1,0,8,5,1,7,monotonicity_b6_non.xlsx,2,0,12,0,1,11,yellow,yellow,yellow,yellow,yellow,green,m,non,green,5de5875d4b7cf9506d7a8566,female,22,2020-03-25_15h21.52.420,non-monotone_v1,3.2.4,Linux x86_64,60,,,,,,,,,,,,,,,,,,,,,,,,,,,,,
,,,,,,,,,,,,,,,"[0.5,0]","[0.3,0]","[-0.5,0]","[-0.1,0]","[-0.3,0]","[0.1,0]",m,1,1.141000032,1,0,8,5,1,7,monotonicity_b6_non.xlsx,2,0,12,5,1,11,green,green,green,green,green,green,m,non,green,5de5875d4b7cf9506d7a8566,female,22,2020-03-25_15h21.52.420,non-monotone_v1,3.2.4,Linux x86_64,60,,,,,,,,,,,,,,,,,,,,,,,,,,,,,
,,,,,,,,,,,,,,,"[-0.5,0]","[0.3,0]","[0.1,0]","[0.5,0]","[-0.3,0]","[-0.1,0]",c,1,0.570999861,1,0,8,5,1,7,monotonicity_b6_non.xlsx,2,0,12,2,1,11,yellow,yellow,yellow,green,green,green,c,non,green,5de5875d4b7cf9506d7a8566,female,22,2020-03-25_15h21.52.420,non-monotone_v1,3.2.4,Linux x86_64,60,,,,,,,,,,,,,,,,,,,,,,,,,,,,,
,,,,,,,,,,,,,,,,,,,,,,,,1,0,8,5,1,7,monotonicity_b6_non.xlsx,,,,,,,,,,,,,,,,5de5875d4b7cf9506d7a8566,female,22,2020-03-25_15h21.52.420,non-monotone_v1,3.2.4,Linux x86_64,60,space,1.133000135,1,0,1,0,1,0,,,,,,,,,,,,,,,,,,,,,
,,,,,,,,,,,,,,,,,,,,,,,,1,0,8,5,1,7,monotonicity_b6_non.xlsx,,,,,,,,,,,,,,,,5de5875d4b7cf9506d7a8566,female,22,2020-03-25_15h21.52.420,non-monotone_v1,3.2.4,Linux x86_64,60,,,,,,,,,,,,,,,,,,,,,,,,,,,,,
,,,,,,,,,,,,,,,"[-0.5,0]","[0.5,0]","[-0.3,0]","[-0.1,0]","[0.1,0]","[0.3,0]",c,0,2.248999834,1,0,8,4,1,7,monotonicity_b5_non.xlsx,2,0,12,5,1,11,blue,blue,blue,blue,blue,blue,m,non,blue,5de5875d4b7cf9506d7a8566,female,22,2020-03-25_15h21.52.420,non-monotone_v1,3.2.4,Linux x86_64,60,,,,,,,,,,,,,,,,,,,,,,,,,,,,,
,,,,,,,,,,,,,,,"[0.5,0]","[-0.5,0]","[0.3,0]","[-0.1,0]","[-0.3,0]","[0.1,0]",c,0,3.075000048,1,0,8,4,1,7,monotonicity_b5_non.xlsx,2,0,12,0,1,11,red,red,red,red,red,blue,m,non,blue,5de5875d4b7cf9506d7a8566,female,22,2020-03-25_15h21.52.420,non-monotone_v1,3.2.4,Linux x86_64,60,,,,,,,,,,,,,,,,,,,,,,,,,,,,,
,,,,,,,,,,,,,,,"[-0.1,0]","[0.1,0]","[0.3,0]","[-0.3,0]","[-0.5,0]","[0.5,0]",m,0,0.323999882,1,0,8,4,1,7,monotonicity_b5_non.xlsx,2,0,12,2,1,11,red,red,red,blue,blue,blue,c,non,blue,5de5875d4b7cf9506d7a8566,female,22,2020-03-25_15h21.52.420,non-monotone_v1,3.2.4,Linux x86_64,60,,,,,,,,,,,,,,,,,,,,,,,,,,,,,
,,,,,,,,,,,,,,,"[0.3,0]","[0.1,0]","[0.5,0]","[-0.5,0]","[-0.3,0]","[-0.1,0]",m,0,0.263999939,1,0,8,4,1,7,monotonicity_b5_non.xlsx,2,0,12,3,1,11,red,red,blue,blue,blue,blue,c,non,blue,5de5875d4b7cf9506d7a8566,female,22,2020-03-25_15h21.52.420,non-monotone_v1,3.2.4,Linux x86_64,60,,,,,,,,,,,,,,,,,,,,,,,,,,,,,
,,,,,,,,,,,,,,,"[-0.1,0]","[0.5,0]","[0.1,0]","[-0.5,0]","[0.3,0]","[-0.3,0]",c,0,0.611999989,1,0,8,4,1,7,monotonicity_b5_non.xlsx,2,0,12,4,1,11,red,blue,blue,blue,blue,blue,m,non,blue,5de5875d4b7cf9506d7a8566,female,22,2020-03-25_15h21.52.420,non-monotone_v1,3.2.4,Linux x86_64,60,,,,,,,,,,,,,,,,,,,,,,,,,,,,,
,,,,,,,,,,,,,,,"[0.3,0]","[-0.5,0]","[-0.3,0]","[0.5,0]","[0.1,0]","[-0.1,0]",m,0,0.750999928,1,0,8,4,1,7,monotonicity_b5_non.xlsx,2,0,12,1,1,11,red,red,red,red,blue,blue,c,non,blue,5de5875d4b7cf9506d7a8566,female,22,2020-03-25_15h21.52.420,non-monotone_v1,3.2.4,Linux x86_64,60,,,,,,,,,,,,,,,,,,,,,,,,,,,,,
,,,,,,,,,,,,,,,"[0.3,0]","[0.1,0]","[0.5,0]","[-0.1,0]","[-0.5,0]","[-0.3,0]",c,1,2.753999949,1,0,8,4,1,7,monotonicity_b5_non.xlsx,2,0,12,2,1,11,red,red,red,blue,blue,blue,c,non,blue,5de5875d4b7cf9506d7a8566,female,22,2020-03-25_15h21.52.420,non-monotone_v1,3.2.4,Linux x86_64,60,,,,,,,,,,,,,,,,,,,,,,,,,,,,,
,,,,,,,,,,,,,,,"[0.1,0]","[0.5,0]","[-0.1,0]","[-0.5,0]","[-0.3,0]","[0.3,0]",m,1,1.849999905,1,0,8,4,1,7,monotonicity_b5_non.xlsx,2,0,12,5,1,11,blue,blue,blue,blue,blue,blue,m,non,blue,5de5875d4b7cf9506d7a8566,female,22,2020-03-25_15h21.52.420,non-monotone_v1,3.2.4,Linux x86_64,60,,,,,,,,,,,,,,,,,,,,,,,,,,,,,
,,,,,,,,,,,,,,,"[0.1,0]","[-0.3,0]","[0.3,0]","[-0.1,0]","[0.5,0]","[-0.5,0]",c,0,2.037999868,1,0,8,4,1,7,monotonicity_b5_non.xlsx,2,0,12,4,1,11,red,blue,blue,blue,blue,blue,m,non,blue,5de5875d4b7cf9506d7a8566,female,22,2020-03-25_15h21.52.420,non-monotone_v1,3.2.4,Linux x86_64,60,,,,,,,,,,,,,,,,,,,,,,,,,,,,,
,,,,,,,,,,,,,,,"[-0.1,0]","[0.1,0]","[-0.5,0]","[0.3,0]","[-0.3,0]","[0.5,0]",c,1,3.07799983,1,0,8,4,1,7,monotonicity_b5_non.xlsx,2,0,12,1,1,11,red,red,red,red,blue,blue,c,non,blue,5de5875d4b7cf9506d7a8566,female,22,2020-03-25_15h21.52.420,non-monotone_v1,3.2.4,Linux x86_64,60,,,,,,,,,,,,,,,,,,,,,,,,,,,,,
,,,,,,,,,,,,,,,"[0.3,0]","[0.1,0]","[-0.1,0]","[-0.5,0]","[-0.3,0]","[0.5,0]",m,1,1.690000057,1,0,8,4,1,7,monotonicity_b5_non.xlsx,2,0,12,0,1,11,red,red,red,red,red,blue,m,non,blue,5de5875d4b7cf9506d7a8566,female,22,2020-03-25_15h21.52.420,non-monotone_v1,3.2.4,Linux x86_64,60,,,,,,,,,,,,,,,,,,,,,,,,,,,,,
,,,,,,,,,,,,,,,"[0.1,0]","[-0.1,0]","[-0.3,0]","[-0.5,0]","[0.5,0]","[0.3,0]",m,0,3.893999815,1,0,8,4,1,7,monotonicity_b5_non.xlsx,2,0,12,3,1,11,red,red,blue,blue,blue,blue,c,non,blue,5de5875d4b7cf9506d7a8566,female,22,2020-03-25_15h21.52.420,non-monotone_v1,3.2.4,Linux x86_64,60,,,,,,,,,,,,,,,,,,,,,,,,,,,,,
,,,,,,,,,,,,,,,,,,,,,,,,1,0,8,4,1,7,monotonicity_b5_non.xlsx,,,,,,,,,,,,,,,,5de5875d4b7cf9506d7a8566,female,22,2020-03-25_15h21.52.420,non-monotone_v1,3.2.4,Linux x86_64,60,space,0.898999929,1,0,1,0,1,0,,,,,,,,,,,,,,,,,,,,,
,,,,,,,,,,,,,,,,,,,,,,,,1,0,8,4,1,7,monotonicity_b5_non.xlsx,,,,,,,,,,,,,,,,5de5875d4b7cf9506d7a8566,female,22,2020-03-25_15h21.52.420,non-monotone_v1,3.2.4,Linux x86_64,60,,,,,,,,,,,,,,,,,,,,,,,,,,,,,
,,,,,,,,,,,,,,,"[-0.5,0]","[0.5,0]","[0.3,0]","[-0.3,0]","[-0.1,0]","[0.1,0]",c,0,3.092000008,1,0,8,1,1,7,monotonicity_b2_non.xlsx,2,0,12,5,1,11,yellow,yellow,yellow,yellow,yellow,yellow,m,non,yellow,5de5875d4b7cf9506d7a8566,female,22,2020-03-25_15h21.52.420,non-monotone_v1,3.2.4,Linux x86_64,60,,,,,,,,,,,,,,,,,,,,,,,,,,,,,
,,,,,,,,,,,,,,,"[-0.3,0]","[0.3,0]","[0.5,0]","[-0.5,0]","[0.1,0]","[-0.1,0]",m,0,6.406999826,1,0,8,1,1,7,monotonicity_b2_non.xlsx,2,0,12,2,1,11,green,green,green,yellow,yellow,yellow,c,non,yellow,5de5875d4b7cf9506d7a8566,female,22,2020-03-25_15h21.52.420,non-monotone_v1,3.2.4,Linux x86_64,60,,,,,,,,,,,,,,,,,,,,,,,,,,,,,
,,,,,,,,,,,,,,,"[0.1,0]","[-0.5,0]","[-0.3,0]","[0.3,0]","[0.5,0]","[-0.1,0]",c,1,0.292999983,1,0,8,1,1,7,monotonicity_b2_non.xlsx,2,0,12,3,1,11,green,green,yellow,yellow,yellow,yellow,c,non,yellow,5de5875d4b7cf9506d7a8566,female,22,2020-03-25_15h21.52.420,non-monotone_v1,3.2.4,Linux x86_64,60,,,,,,,,,,,,,,,,,,,,,,,,,,,,,
,,,,,,,,,,,,,,,"[-0.1,0]","[0.3,0]","[0.1,0]","[0.5,0]","[-0.5,0]","[-0.3,0]",c,0,0.973999977,1,0,8,1,1,7,monotonicity_b2_non.xlsx,2,0,12,4,1,11,green,yellow,yellow,yellow,yellow,yellow,m,non,yellow,5de5875d4b7cf9506d7a8566,female,22,2020-03-25_15h21.52.420,non-monotone_v1,3.2.4,Linux x86_64,60,,,,,,,,,,,,,,,,,,,,,,,,,,,,,
,,,,,,,,,,,,,,,"[0.3,0]","[-0.3,0]","[-0.5,0]","[0.5,0]","[0.1,0]","[-0.1,0]",m,0,0.509999752,1,0,8,1,1,7,monotonicity_b2_non.xlsx,2,0,12,1,1,11,green,green,green,green,yellow,yellow,c,non,yellow,5de5875d4b7cf9506d7a8566,female,22,2020-03-25_15h21.52.420,non-monotone_v1,3.2.4,Linux x86_64,60,,,,,,,,,,,,,,,,,,,,,,,,,,,,,
,,,,,,,,,,,,,,,"[-0.1,0]","[0.3,0]","[-0.5,0]","[-0.3,0]","[0.5,0]","[0.1,0]",c,0,0.194999933,1,0,8,1,1,7,monotonicity_b2_non.xlsx,2,0,12,0,1,11,green,green,green,green,green,yellow,m,non,yellow,5de5875d4b7cf9506d7a8566,female,22,2020-03-25_15h21.52.420,non-monotone_v1,3.2.4,Linux x86_64,60,,,,,,,,,,,,,,,,,,,,,,,,,,,,,
,,,,,,,,,,,,,,,"[0.1,0]","[-0.3,0]","[-0.1,0]","[0.5,0]","[-0.5,0]","[0.3,0]",m,1,0.295999765,1,0,8,1,1,7,monotonicity_b2_non.xlsx,2,0,12,4,1,11,green,yellow,yellow,yellow,yellow,yellow,m,non,yellow,5de5875d4b7cf9506d7a8566,female,22,2020-03-25_15h21.52.420,non-monotone_v1,3.2.4,Linux x86_64,60,,,,,,,,,,,,,,,,,,,,,,,,,,,,,
,,,,,,,,,,,,,,,"[0.3,0]","[0.1,0]","[0.5,0]","[-0.3,0]","[-0.1,0]","[-0.5,0]",m,0,0.572000027,1,0,8,1,1,7,monotonicity_b2_non.xlsx,2,0,12,3,1,11,green,green,yellow,yellow,yellow,yellow,c,non,yellow,5de5875d4b7cf9506d7a8566,female,22,2020-03-25_15h21.52.420,non-monotone_v1,3.2.4,Linux x86_64,60,,,,,,,,,,,,,,,,,,,,,,,,,,,,,
,,,,,,,,,,,,,,,"[0.1,0]","[0.5,0]","[0.3,0]","[-0.3,0]","[-0.5,0]","[-0.1,0]",c,1,0.760999918,1,0,8,1,1,7,monotonicity_b2_non.xlsx,2,0,12,1,1,11,green,green,green,green,yellow,yellow,c,non,yellow,5de5875d4b7cf9506d7a8566,female,22,2020-03-25_15h21.52.420,non-monotone_v1,3.2.4,Linux x86_64,60,,,,,,,,,,,,,,,,,,,,,,,,,,,,,
,,,,,,,,,,,,,,,"[0.1,0]","[-0.3,0]","[0.3,0]","[-0.5,0]","[0.5,0]","[-0.1,0]",c,0,0.445999861,1,0,8,1,1,7,monotonicity_b2_non.xlsx,2,0,12,5,1,11,yellow,yellow,yellow,yellow,yellow,yellow,m,non,yellow,5de5875d4b7cf9506d7a8566,female,22,2020-03-25_15h21.52.420,non-monotone_v1,3.2.4,Linux x86_64,60,,,,,,,,,,,,,,,,,,,,,,,,,,,,,
,,,,,,,,,,,,,,,"[-0.1,0]","[-0.3,0]","[-0.5,0]","[0.5,0]","[0.1,0]","[0.3,0]",m,1,0.306999922,1,0,8,1,1,7,monotonicity_b2_non.xlsx,2,0,12,0,1,11,green,green,green,green,green,yellow,m,non,yellow,5de5875d4b7cf9506d7a8566,female,22,2020-03-25_15h21.52.420,non-monotone_v1,3.2.4,Linux x86_64,60,,,,,,,,,,,,,,,,,,,,,,,,,,,,,
,,,,,,,,,,,,,,,"[0.3,0]","[0.1,0]","[0.5,0]","[-0.5,0]","[-0.3,0]","[-0.1,0]",m,0,0.217999697,1,0,8,1,1,7,monotonicity_b2_non.xlsx,2,0,12,2,1,11,green,green,green,yellow,yellow,yellow,c,non,yellow,5de5875d4b7cf9506d7a8566,female,22,2020-03-25_15h21.52.420,non-monotone_v1,3.2.4,Linux x86_64,60,,,,,,,,,,,,,,,,,,,,,,,,,,,,,
,,,,,,,,,,,,,,,,,,,,,,,,1,0,8,1,1,7,monotonicity_b2_non.xlsx,,,,,,,,,,,,,,,,5de5875d4b7cf9506d7a8566,female,22,2020-03-25_15h21.52.420,non-monotone_v1,3.2.4,Linux x86_64,60,space,0.921000004,1,0,1,0,1,0,,,,,,,,,,,,,,,,,,,,,
,,,,,,,,,,,,,,,,,,,,,,,,1,0,8,1,1,7,monotonicity_b2_non.xlsx,,,,,,,,,,,,,,,,5de5875d4b7cf9506d7a8566,female,22,2020-03-25_15h21.52.420,non-monotone_v1,3.2.4,Linux x86_64,60,,,,,,,,,,,,,,,,,,,,,,,,,,,,,
,,,,,,,,,,,,,,,"[-0.3,0]","[0.5,0]","[-0.5,0]","[0.3,0]","[0.1,0]","[-0.1,0]",m,1,2.986999989,1,0,8,7,1,7,monotonicity_b8_non.xlsx,2,0,12,0,1,11,yellow,yellow,yellow,yellow,yellow,blue,m,non,blue,5de5875d4b7cf9506d7a8566,female,22,2020-03-25_15h21.52.420,non-monotone_v1,3.2.4,Linux x86_64,60,,,,,,,,,,,,,,,,,,,,,,,,,,,,,
,,,,,,,,,,,,,,,"[0.3,0]","[-0.3,0]","[0.5,0]","[-0.5,0]","[0.1,0]","[-0.1,0]",c,1,3.009000063,1,0,8,7,1,7,monotonicity_b8_non.xlsx,2,0,12,1,1,11,yellow,yellow,yellow,yellow,blue,blue,c,non,blue,5de5875d4b7cf9506d7a8566,female,22,2020-03-25_15h21.52.420,non-monotone_v1,3.2.4,Linux x86_64,60,,,,,,,,,,,,,,,,,,,,,,,,,,,,,
,,,,,,,,,,,,,,,"[-0.5,0]","[-0.1,0]","[-0.3,0]","[0.1,0]","[0.3,0]","[0.5,0]",m,1,6.065999985,1,0,8,7,1,7,monotonicity_b8_non.xlsx,2,0,12,4,1,11,yellow,blue,blue,blue,blue,blue,m,non,blue,5de5875d4b7cf9506d7a8566,female,22,2020-03-25_15h21.52.420,non-monotone_v1,3.2.4,Linux x86_64,60,,,,,,,,,,,,,,,,,,,,,,,,,,,,,
,,,,,,,,,,,,,,,"[0.3,0]","[-0.1,0]","[-0.3,0]","[-0.5,0]","[0.1,0]","[0.5,0]",c,1,2.615999937,1,0,8,7,1,7,monotonicity_b8_non.xlsx,2,0,12,2,1,11,yellow,yellow,yellow,blue,blue,blue,c,non,blue,5de5875d4b7cf9506d7a8566,female,22,2020-03-25_15h21.52.420,non-monotone_v1,3.2.4,Linux x86_64,60,,,,,,,,,,,,,,,,,,,,,,,,,,,,,
,,,,,,,,,,,,,,,"[0.5,0]","[-0.5,0]","[0.3,0]","[0.1,0]","[-0.3,0]","[-0.1,0]",c,1,5.639999866,1,0,8,7,1,7,monotonicity_b8_non.xlsx,2,0,12,3,1,11,yellow,yellow,blue,blue,blue,blue,c,non,blue,5de5875d4b7cf9506d7a8566,female,22,2020-03-25_15h21.52.420,non-monotone_v1,3.2.4,Linux x86_64,60,,,,,,,,,,,,,,,,,,,,,,,,,,,,,
,,,,,,,,,,,,,,,"[0.1,0]","[-0.5,0]","[0.3,0]","[-0.1,0]","[-0.3,0]","[0.5,0]",m,1,1.824999809,1,0,8,7,1,7,monotonicity_b8_non.xlsx,2,0,12,5,1,11,blue,blue,blue,blue,blue,blue,m,non,blue,5de5875d4b7cf9506d7a8566,female,22,2020-03-25_15h21.52.420,non-monotone_v1,3.2.4,Linux x86_64,60,,,,,,,,,,,,,,,,,,,,,,,,,,,,,
,,,,,,,,,,,,,,,"[0.3,0]","[0.1,0]","[-0.5,0]","[-0.3,0]","[0.5,0]","[-0.1,0]",m,1,1.357000113,1,0,8,7,1,7,monotonicity_b8_non.xlsx,2,0,12,5,1,11,blue,blue,blue,blue,blue,blue,m,non,blue,5de5875d4b7cf9506d7a8566,female,22,2020-03-25_15h21.52.420,non-monotone_v1,3.2.4,Linux x86_64,60,,,,,,,,,,,,,,,,,,,,,,,,,,,,,
,,,,,,,,,,,,,,,"[0.3,0]","[0.1,0]","[-0.1,0]","[-0.3,0]","[0.5,0]","[-0.5,0]",c,1,1.285999775,1,0,8,7,1,7,monotonicity_b8_non.xlsx,2,0,12,2,1,11,yellow,yellow,yellow,blue,blue,blue,c,non,blue,5de5875d4b7cf9506d7a8566,female,22,2020-03-25_15h21.52.420,non-monotone_v1,3.2.4,Linux x86_64,60,,,,,,,,,,,,,,,,,,,,,,,,,,,,,
,,,,,,,,,,,,,,,"[-0.1,0]","[0.5,0]","[-0.3,0]","[-0.5,0]","[0.1,0]","[0.3,0]",c,1,1.809999943,1,0,8,7,1,7,monotonicity_b8_non.xlsx,2,0,12,1,1,11,yellow,yellow,yellow,yellow,blue,blue,c,non,blue,5de5875d4b7cf9506d7a8566,female,22,2020-03-25_15h21.52.420,non-monotone_v1,3.2.4,Linux x86_64,60,,,,,,,,,,,,,,,,,,,,,,,,,,,,,
,,,,,,,,,,,,,,,"[0.5,0]","[-0.5,0]","[0.1,0]","[-0.3,0]","[0.3,0]","[-0.1,0]",c,1,2.002000093,1,0,8,7,1,7,monotonicity_b8_non.xlsx,2,0,12,3,1,11,yellow,yellow,blue,blue,blue,blue,c,non,blue,5de5875d4b7cf9506d7a8566,female,22,2020-03-25_15h21.52.420,non-monotone_v1,3.2.4,Linux x86_64,60,,,,,,,,,,,,,,,,,,,,,,,,,,,,,
,,,,,,,,,,,,,,,"[-0.5,0]","[-0.3,0]","[0.3,0]","[0.5,0]","[0.1,0]","[-0.1,0]",m,1,1.910999775,1,0,8,7,1,7,monotonicity_b8_non.xlsx,2,0,12,4,1,11,yellow,blue,blue,blue,blue,blue,m,non,blue,5de5875d4b7cf9506d7a8566,female,22,2020-03-25_15h21.52.420,non-monotone_v1,3.2.4,Linux x86_64,60,,,,,,,,,,,,,,,,,,,,,,,,,,,,,
,,,,,,,,,,,,,,,"[0.5,0]","[-0.3,0]","[-0.1,0]","[0.3,0]","[0.1,0]","[-0.5,0]",m,1,2.711999893,1,0,8,7,1,7,monotonicity_b8_non.xlsx,2,0,12,0,1,11,yellow,yellow,yellow,yellow,yellow,blue,m,non,blue,5de5875d4b7cf9506d7a8566,female,22,2020-03-25_15h21.52.420,non-monotone_v1,3.2.4,Linux x86_64,60,,,,,,,,,,,,,,,,,,,,,,,,,,,,,
,,,,,,,,,,,,,,,,,,,,,,,,1,0,8,7,1,7,monotonicity_b8_non.xlsx,,,,,,,,,,,,,,,,5de5875d4b7cf9506d7a8566,female,22,2020-03-25_15h21.52.420,non-monotone_v1,3.2.4,Linux x86_64,60,space,0.953999758,1,0,1,0,1,0,,,,,,,,,,,,,,,,,,,,,
,,,,,,,,,,,,,,,,,,,,,,,,1,0,8,7,1,7,monotonicity_b8_non.xlsx,,,,,,,,,,,,,,,,5de5875d4b7cf9506d7a8566,female,22,2020-03-25_15h21.52.420,non-monotone_v1,3.2.4,Linux x86_64,60,,,,,,,,,,,,,,,,,,,,,,,,,,,,,
,,,,,,,,,,,,,,,"[0.1,0]","[-0.5,0]","[-0.3,0]","[-0.1,0]","[0.5,0]","[0.3,0]",c,1,3.421999931,1,0,8,6,1,7,monotonicity_b7_non.xlsx,2,0,12,1,1,11,red,red,red,red,green,green,c,non,green,5de5875d4b7cf9506d7a8566,female,22,2020-03-25_15h21.52.420,non-monotone_v1,3.2.4,Linux x86_64,60,,,,,,,,,,,,,,,,,,,,,,,,,,,,,
,,,,,,,,,,,,,,,"[0.5,0]","[-0.3,0]","[-0.1,0]","[0.3,0]","[-0.5,0]","[0.1,0]",m,1,2.711999893,1,0,8,6,1,7,monotonicity_b7_non.xlsx,2,0,12,4,1,11,red,green,green,green,green,green,m,non,green,5de5875d4b7cf9506d7a8566,female,22,2020-03-25_15h21.52.420,non-monotone_v1,3.2.4,Linux x86_64,60,,,,,,,,,,,,,,,,,,,,,,,,,,,,,
,,,,,,,,,,,,,,,"[0.3,0]","[-0.1,0]","[-0.3,0]","[0.5,0]","[0.1,0]","[-0.5,0]",m,1,2.777999878,1,0,8,6,1,7,monotonicity_b7_non.xlsx,2,0,12,0,1,11,red,red,red,red,red,green,m,non,green,5de5875d4b7cf9506d7a8566,female,22,2020-03-25_15h21.52.420,non-monotone_v1,3.2.4,Linux x86_64,60,,,,,,,,,,,,,,,,,,,,,,,,,,,,,
,,,,,,,,,,,,,,,"[-0.3,0]","[-0.1,0]","[0.5,0]","[0.1,0]","[-0.5,0]","[0.3,0]",c,1,1.861999989,1,0,8,6,1,7,monotonicity_b7_non.xlsx,2,0,12,3,1,11,red,red,green,green,green,green,c,non,green,5de5875d4b7cf9506d7a8566,female,22,2020-03-25_15h21.52.420,non-monotone_v1,3.2.4,Linux x86_64,60,,,,,,,,,,,,,,,,,,,,,,,,,,,,,
,,,,,,,,,,,,,,,"[0.5,0]","[-0.3,0]","[-0.1,0]","[0.3,0]","[-0.5,0]","[0.1,0]",m,1,1.766000032,1,0,8,6,1,7,monotonicity_b7_non.xlsx,2,0,12,5,1,11,green,green,green,green,green,green,m,non,green,5de5875d4b7cf9506d7a8566,female,22,2020-03-25_15h21.52.420,non-monotone_v1,3.2.4,Linux x86_64,60,,,,,,,,,,,,,,,,,,,,,,,,,,,,,
,,,,,,,,,,,,,,,"[-0.3,0]","[0.5,0]","[0.1,0]","[-0.5,0]","[0.3,0]","[-0.1,0]",c,1,0.96999979,1,0,8,6,1,7,monotonicity_b7_non.xlsx,2,0,12,2,1,11,red,red,red,green,green,green,c,non,green,5de5875d4b7cf9506d7a8566,female,22,2020-03-25_15h21.52.420,non-monotone_v1,3.2.4,Linux x86_64,60,,,,,,,,,,,,,,,,,,,,,,,,,,,,,
,,,,,,,,,,,,,,,"[0.3,0]","[0.5,0]","[-0.1,0]","[0.1,0]","[-0.3,0]","[-0.5,0]",m,1,2.022000074,1,0,8,6,1,7,monotonicity_b7_non.xlsx,2,0,12,4,1,11,red,green,green,green,green,green,m,non,green,5de5875d4b7cf9506d7a8566,female,22,2020-03-25_15h21.52.420,non-monotone_v1,3.2.4,Linux x86_64,60,,,,,,,,,,,,,,,,,,,,,,,,,,,,,
,,,,,,,,,,,,,,,"[-0.1,0]","[0.1,0]","[-0.5,0]","[0.3,0]","[-0.3,0]","[0.5,0]",c,1,0.72300005,1,0,8,6,1,7,monotonicity_b7_non.xlsx,2,0,12,3,1,11,red,red,green,green,green,green,c,non,green,5de5875d4b7cf9506d7a8566,female,22,2020-03-25_15h21.52.420,non-monotone_v1,3.2.4,Linux x86_64,60,,,,,,,,,,,,,,,,,,,,,,,,,,,,,
,,,,,,,,,,,,,,,"[-0.3,0]","[0.1,0]","[-0.5,0]","[-0.1,0]","[0.5,0]","[0.3,0]",m,1,2.389999866,1,0,8,6,1,7,monotonicity_b7_non.xlsx,2,0,12,0,1,11,red,red,red,red,red,green,m,non,green,5de5875d4b7cf9506d7a8566,female,22,2020-03-25_15h21.52.420,non-monotone_v1,3.2.4,Linux x86_64,60,,,,,,,,,,,,,,,,,,,,,,,,,,,,,
,,,,,,,,,,,,,,,"[0.3,0]","[0.1,0]","[-0.5,0]","[-0.1,0]","[0.5,0]","[-0.3,0]",c,1,0.833999872,1,0,8,6,1,7,monotonicity_b7_non.xlsx,2,0,12,2,1,11,red,red,red,green,green,green,c,non,green,5de5875d4b7cf9506d7a8566,female,22,2020-03-25_15h21.52.420,non-monotone_v1,3.2.4,Linux x86_64,60,,,,,,,,,,,,,,,,,,,,,,,,,,,,,
,,,,,,,,,,,,,,,"[0.3,0]","[0.1,0]","[-0.3,0]","[0.5,0]","[-0.5,0]","[-0.1,0]",c,1,2.134999752,1,0,8,6,1,7,monotonicity_b7_non.xlsx,2,0,12,1,1,11,red,red,red,red,green,green,c,non,green,5de5875d4b7cf9506d7a8566,female,22,2020-03-25_15h21.52.420,non-monotone_v1,3.2.4,Linux x86_64,60,,,,,,,,,,,,,,,,,,,,,,,,,,,,,
,,,,,,,,,,,,,,,"[-0.3,0]","[0.5,0]","[-0.1,0]","[-0.5,0]","[0.3,0]","[0.1,0]",m,1,1.038999796,1,0,8,6,1,7,monotonicity_b7_non.xlsx,2,0,12,5,1,11,green,green,green,green,green,green,m,non,green,5de5875d4b7cf9506d7a8566,female,22,2020-03-25_15h21.52.420,non-monotone_v1,3.2.4,Linux x86_64,60,,,,,,,,,,,,,,,,,,,,,,,,,,,,,
,,,,,,,,,,,,,,,,,,,,,,,,1,0,8,6,1,7,monotonicity_b7_non.xlsx,,,,,,,,,,,,,,,,5de5875d4b7cf9506d7a8566,female,22,2020-03-25_15h21.52.420,non-monotone_v1,3.2.4,Linux x86_64,60,,,,,,,,,,,,,,,,,,,,,,,,,,,,,
,,,,,,,,,,,,,,,"[0.5,0]","[0.1,0]","[-0.3,0]","[-0.1,0]","[-0.5,0]","[0.3,0]",,,,,,,,,,,,,,,,,,,,,,,c,non,,5de5875d4b7cf9506d7a8566,female,22,2020-03-25_15h21.52.420,non-monotone_v1,3.2.4,Linux x86_64,60,,,,,,,,,space,23.48600006,space,4.720999956,c,1,4.752999783,2,0,12,3,1,11,0.09,0.09,0.19,0.19,0.19,0.19,black,
,,,,,,,,,,,,,,,"[-0.3,0]","[-0.5,0]","[0.3,0]","[-0.1,0]","[0.5,0]","[0.1,0]",,,,,,,,,,,,,,,,,,,,,,,c,non,,5de5875d4b7cf9506d7a8566,female,22,2020-03-25_15h21.52.420,non-monotone_v1,3.2.4,Linux x86_64,60,,,,,,,,,,,,,c,1,4.49000001,2,0,12,2,1,11,0.09,0.09,0.09,0.19,0.19,0.19,black,
,,,,,,,,,,,,,,,"[-0.3,0]","[-0.1,0]","[0.3,0]","[0.1,0]","[-0.5,0]","[0.5,0]",,,,,,,,,,,,,,,,,,,,,,,m,non,,5de5875d4b7cf9506d7a8566,female,22,2020-03-25_15h21.52.420,non-monotone_v1,3.2.4,Linux x86_64,60,,,,,,,,,,,,,m,1,1.994999886,2,0,12,0,1,11,0.09,0.09,0.09,0.09,0.09,0.19,black,
,,,,,,,,,,,,,,,"[-0.1,0]","[0.5,0]","[0.3,0]","[-0.3,0]","[-0.5,0]","[0.1,0]",,,,,,,,,,,,,,,,,,,,,,,m,non,,5de5875d4b7cf9506d7a8566,female,22,2020-03-25_15h21.52.420,non-monotone_v1,3.2.4,Linux x86_64,60,,,,,,,,,,,,,m,1,1.595999956,2,0,12,4,1,11,0.09,0.19,0.19,0.19,0.19,0.19,black,
,,,,,,,,,,,,,,,"[0.1,0]","[-0.5,0]","[-0.3,0]","[0.3,0]","[0.5,0]","[-0.1,0]",,,,,,,,,,,,,,,,,,,,,,,m,non,,5de5875d4b7cf9506d7a8566,female,22,2020-03-25_15h21.52.420,non-monotone_v1,3.2.4,Linux x86_64,60,,,,,,,,,,,,,m,1,1.493999958,2,0,12,5,1,11,0.19,0.19,0.19,0.19,0.19,0.19,black,
,,,,,,,,,,,,,,,"[0.1,0]","[-0.5,0]","[-0.1,0]","[-0.3,0]","[0.3,0]","[0.5,0]",,,,,,,,,,,,,,,,,,,,,,,c,non,,5de5875d4b7cf9506d7a8566,female,22,2020-03-25_15h21.52.420,non-monotone_v1,3.2.4,Linux x86_64,60,,,,,,,,,,,,,c,1,0.996000051,2,0,12,1,1,11,0.09,0.09,0.09,0.09,0.19,0.19,black,
,,,,,,,,,,,,,,,"[0.5,0]","[-0.5,0]","[-0.1,0]","[0.3,0]","[-0.3,0]","[0.1,0]",,,,,,,,,,,,,,,,,,,,,,,m,non,,5de5875d4b7cf9506d7a8566,female,22,2020-03-25_15h21.52.420,non-monotone_v1,3.2.4,Linux x86_64,60,,,,,,,,,,,,,m,1,1.34499979,2,0,12,5,1,11,0.19,0.19,0.19,0.19,0.19,0.19,black,
,,,,,,,,,,,,,,,"[0.5,0]","[-0.3,0]","[-0.1,0]","[-0.5,0]","[0.3,0]","[0.1,0]",,,,,,,,,,,,,,,,,,,,,,,c,non,,5de5875d4b7cf9506d7a8566,female,22,2020-03-25_15h21.52.420,non-monotone_v1,3.2.4,Linux x86_64,60,,,,,,,,,,,,,c,1,1.098999977,2,0,12,2,1,11,0.09,0.09,0.09,0.19,0.19,0.19,black,
,,,,,,,,,,,,,,,"[0.3,0]","[-0.3,0]","[0.1,0]","[-0.1,0]","[0.5,0]","[-0.5,0]",,,,,,,,,,,,,,,,,,,,,,,m,non,,5de5875d4b7cf9506d7a8566,female,22,2020-03-25_15h21.52.420,non-monotone_v1,3.2.4,Linux x86_64,60,,,,,,,,,,,,,m,1,0.914999962,2,0,12,0,1,11,0.09,0.09,0.09,0.09,0.09,0.19,black,
,,,,,,,,,,,,,,,"[0.3,0]","[0.1,0]","[-0.5,0]","[-0.3,0]","[0.5,0]","[-0.1,0]",,,,,,,,,,,,,,,,,,,,,,,m,non,,5de5875d4b7cf9506d7a8566,female,22,2020-03-25_15h21.52.420,non-monotone_v1,3.2.4,Linux x86_64,60,,,,,,,,,,,,,m,1,1.036999941,2,0,12,4,1,11,0.09,0.19,0.19,0.19,0.19,0.19,black,
,,,,,,,,,,,,,,,"[-0.5,0]","[0.5,0]","[0.3,0]","[-0.1,0]","[-0.3,0]","[0.1,0]",,,,,,,,,,,,,,,,,,,,,,,c,non,,5de5875d4b7cf9506d7a8566,female,22,2020-03-25_15h21.52.420,non-monotone_v1,3.2.4,Linux x86_64,60,,,,,,,,,,,,,c,1,1.252000093,2,0,12,3,1,11,0.09,0.09,0.19,0.19,0.19,0.19,black,
,,,,,,,,,,,,,,,"[0.5,0]","[-0.5,0]","[-0.3,0]","[-0.1,0]","[0.3,0]","[0.1,0]",,,,,,,,,,,,,,,,,,,,,,,c,non,,5de5875d4b7cf9506d7a8566,female,22,2020-03-25_15h21.52.420,non-monotone_v1,3.2.4,Linux x86_64,60,,,,,,,,,,,,,c,1,2.542999983,2,0,12,1,1,11,0.09,0.09,0.09,0.09,0.19,0.19,black,
,,,,,,,,,,,,,,,,,,,,,,,,,,,,,,,,,,,,,,,,,,,,,,5de5875d4b7cf9506d7a8566,female,22,2020-03-25_15h21.52.420,non-monotone_v1,3.2.4,Linux x86_64,60,,,,,,,,,,,,,,,,,,,,,,,,,,,,,some
